"STUDYID","DOMAIN","USUBJID","DSSEQ","DSTERM","DSDECOD","DSCAT","VISITNUM","VISIT","DSDTC","DSSTDTC","DSSTDY"
"CDISCPILOT01","DS","CDISCPILOT01-701-1015",1,"Completed","COMPLETED","DISPOSITION EVENT","13","WEEK 26","2014-02-07",2014-02-07,7
"CDISCPILOT01","DS","CDISCPILOT01-701-1015",2,"Final Lab Visit","FINAL LAB VISIT","OTHER EVENT","13","WEEK 26","2014-02-07T11:45",2014-02-07,7
"CDISCPILOT01","DS","CDISCPILOT01-701-1015",3,"Randomized","RANDOMIZED","PROTOCOL MILESTONE","3","BASELINE","2014-02-01",2014-02-01,1
"CDISCPILOT01","DS","CDISCPILOT01-701-1023",1,"Adverse Event","ADVERSE EVENT","DISPOSITION EVENT","5","WEEK 4","2012-02-09",2012-02-09,-89
"CDISCPILOT01","DS","CDISCPILOT01-701-1023",2,"Final Lab Visit","FINAL LAB VISIT","OTHER EVENT","5","WEEK 4","2012-02-09T10:15",2012-02-09,-89
"CDISCPILOT01","DS","CDISCPILOT01-701-1023",3,"Final Retrieval Visit","FINAL RETRIEVAL VISIT","OTHER EVENT","201","RETRIEVAL","2013-18-02",NA,NA
"CDISCPILOT01","DS","CDISCPILOT01-701-1023",4,"Randomized","RANDOMIZED","PROTOCOL MILESTONE","3","BASELINE","2012-05-08",2012-05-08,1
"CDISCPILOT01","DS","CDISCPILOT01-701-1028",1,"Completed","COMPLETED","DISPOSITION EVENT","13","WEEK 26","2014-14-01",NA,NA
"CDISCPILOT01","DS","CDISCPILOT01-701-1028",2,"Final Lab Visit","FINAL LAB VISIT","OTHER EVENT","13","WEEK 26","2014-14-01T11:10",NA,NA
"CDISCPILOT01","DS","CDISCPILOT01-701-1028",3,"Randomized","RANDOMIZED","PROTOCOL MILESTONE","3","BASELINE","2013-19-07",NA,NA
"CDISCPILOT01","DS","CDISCPILOT01-701-1033",1,"Final Lab Visit","FINAL LAB VISIT","OTHER EVENT","5","WEEK 4","2014-14-04T10:38",NA,NA
"CDISCPILOT01","DS","CDISCPILOT01-701-1033",2,"Final Retrieval Visit","FINAL RETRIEVAL VISIT","OTHER EVENT","201","RETRIEVAL","2014-15-09",NA,NA
"CDISCPILOT01","DS","CDISCPILOT01-701-1033",3,"Randomized","RANDOMIZED","PROTOCOL MILESTONE","3","BASELINE","2014-18-03",NA,NA
"CDISCPILOT01","DS","CDISCPILOT01-701-1033",4,"Study Terminated by Sponsor","STUDY TERMINATED BY SPONSOR","DISPOSITION EVENT","5","WEEK 4","2014-14-04",NA,NA
"CDISCPILOT01","DS","CDISCPILOT01-701-1034",1,"Completed","COMPLETED","DISPOSITION EVENT","13","WEEK 26","2014-30-12",NA,NA
"CDISCPILOT01","DS","CDISCPILOT01-701-1034",2,"Final Lab Visit","FINAL LAB VISIT","OTHER EVENT","13","WEEK 26","2014-30-12T09:50",NA,NA
"CDISCPILOT01","DS","CDISCPILOT01-701-1034",3,"Randomized","RANDOMIZED","PROTOCOL MILESTONE","3","BASELINE","2014-01-07",2014-01-07,1
"CDISCPILOT01","DS","CDISCPILOT01-701-1047",1,"Adverse Event","ADVERSE EVENT","DISPOSITION EVENT","AMBUL ECG REMOVAL","AMBUL ECG REMOVAL","2013-29-03",NA,NA
"CDISCPILOT01","DS","CDISCPILOT01-701-1047",2,"Final Lab Visit","FINAL LAB VISIT","OTHER EVENT","UNSCHEDULED 6.1","UNSCHEDULED 6.1","2013-07-04T11:20",2013-07-04,-151
"CDISCPILOT01","DS","CDISCPILOT01-701-1047",3,"Final Retrieval Visit","FINAL RETRIEVAL VISIT","OTHER EVENT","201","RETRIEVAL","2013-28-07",NA,NA
"CDISCPILOT01","DS","CDISCPILOT01-701-1047",4,"Randomized","RANDOMIZED","PROTOCOL MILESTONE","3","BASELINE","2013-12-02",2013-12-02,1
"CDISCPILOT01","DS","CDISCPILOT01-701-1057",1,"Screen Failure","SCREEN FAILURE","DISPOSITION EVENT","1","SCREENING 1","2013-20-12",NA,NA
"CDISCPILOT01","DS","CDISCPILOT01-701-1097",1,"Completed","COMPLETED","DISPOSITION EVENT","13","WEEK 26","2014-09-07",2014-09-07,250
"CDISCPILOT01","DS","CDISCPILOT01-701-1097",2,"Final Lab Visit","FINAL LAB VISIT","OTHER EVENT","13","WEEK 26","2014-09-07T09:39",2014-09-07,250
"CDISCPILOT01","DS","CDISCPILOT01-701-1097",3,"Randomized","RANDOMIZED","PROTOCOL MILESTONE","3","BASELINE","2014-01-01",2014-01-01,1
"CDISCPILOT01","DS","CDISCPILOT01-701-1111",1,"Adverse Event","ADVERSE EVENT","DISPOSITION EVENT","4","WEEK 2","2012-17-09",NA,NA
"CDISCPILOT01","DS","CDISCPILOT01-701-1111",2,"Final Lab Visit","FINAL LAB VISIT","OTHER EVENT","4","WEEK 2","2012-17-09T11:48",NA,NA
"CDISCPILOT01","DS","CDISCPILOT01-701-1111",3,"Final Retrieval Visit","FINAL RETRIEVAL VISIT","OTHER EVENT","201","RETRIEVAL","2013-22-02",NA,NA
"CDISCPILOT01","DS","CDISCPILOT01-701-1111",4,"Randomized","RANDOMIZED","PROTOCOL MILESTONE","3","BASELINE","2012-07-09",2012-07-09,1
"CDISCPILOT01","DS","CDISCPILOT01-701-1115",1,"Adverse Event","ADVERSE EVENT","DISPOSITION EVENT","8","WEEK 8","2013-23-01",NA,NA
"CDISCPILOT01","DS","CDISCPILOT01-701-1115",2,"Final Lab Visit","FINAL LAB VISIT","OTHER EVENT","8","WEEK 8","2013-23-01T12:13",NA,NA
"CDISCPILOT01","DS","CDISCPILOT01-701-1115",3,"Final Retrieval Visit","FINAL RETRIEVAL VISIT","OTHER EVENT","201","RETRIEVAL","2013-20-05",NA,NA
"CDISCPILOT01","DS","CDISCPILOT01-701-1115",4,"Randomized","RANDOMIZED","PROTOCOL MILESTONE","3","BASELINE","2012-30-11",NA,NA
"CDISCPILOT01","DS","CDISCPILOT01-701-1118",1,"Completed","COMPLETED","DISPOSITION EVENT","13","WEEK 26","2014-09-09",2014-09-09,-85
"CDISCPILOT01","DS","CDISCPILOT01-701-1118",2,"Final Lab Visit","FINAL LAB VISIT","OTHER EVENT","13","WEEK 26","2014-09-09T13:28",2014-09-09,-85
"CDISCPILOT01","DS","CDISCPILOT01-701-1118",3,"Randomized","RANDOMIZED","PROTOCOL MILESTONE","3","BASELINE","2014-12-03",2014-12-03,1
"CDISCPILOT01","DS","CDISCPILOT01-701-1130",1,"Completed","COMPLETED","DISPOSITION EVENT","13","WEEK 26","2014-16-08",NA,NA
"CDISCPILOT01","DS","CDISCPILOT01-701-1130",2,"Final Lab Visit","FINAL LAB VISIT","OTHER EVENT","13","WEEK 26","2014-16-08T13:10",NA,NA
"CDISCPILOT01","DS","CDISCPILOT01-701-1130",3,"Randomized","RANDOMIZED","PROTOCOL MILESTONE","3","BASELINE","2014-15-02",NA,NA
"CDISCPILOT01","DS","CDISCPILOT01-701-1133",1,"Completed","COMPLETED","DISPOSITION EVENT","13","WEEK 26","2013-29-04",NA,NA
"CDISCPILOT01","DS","CDISCPILOT01-701-1133",2,"Final Lab Visit","FINAL LAB VISIT","OTHER EVENT","13","WEEK 26","2013-29-04T10:13",NA,NA
"CDISCPILOT01","DS","CDISCPILOT01-701-1133",3,"Randomized","RANDOMIZED","PROTOCOL MILESTONE","3","BASELINE","2012-28-10",NA,NA
"CDISCPILOT01","DS","CDISCPILOT01-701-1145",1,"Screen Failure","SCREEN FAILURE","DISPOSITION EVENT","1","SCREENING 1","2013-05-09",2013-05-09,NA
"CDISCPILOT01","DS","CDISCPILOT01-701-1146",1,"Adverse Event","ADVERSE EVENT","DISPOSITION EVENT","7","WEEK 6","2013-30-06",NA,NA
"CDISCPILOT01","DS","CDISCPILOT01-701-1146",2,"Final Lab Visit","FINAL LAB VISIT","OTHER EVENT","7","WEEK 6","2013-30-06T11:44",NA,NA
"CDISCPILOT01","DS","CDISCPILOT01-701-1146",3,"Randomized","RANDOMIZED","PROTOCOL MILESTONE","3","BASELINE","2013-20-05",NA,NA
"CDISCPILOT01","DS","CDISCPILOT01-701-1148",1,"Completed","COMPLETED","DISPOSITION EVENT","13","WEEK 26","2014-20-02",NA,NA
"CDISCPILOT01","DS","CDISCPILOT01-701-1148",2,"Final Lab Visit","FINAL LAB VISIT","OTHER EVENT","13","WEEK 26","2014-20-02T15:07",NA,NA
"CDISCPILOT01","DS","CDISCPILOT01-701-1148",3,"Randomized","RANDOMIZED","PROTOCOL MILESTONE","3","BASELINE","2013-23-08",NA,NA
"CDISCPILOT01","DS","CDISCPILOT01-701-1153",1,"Completed","COMPLETED","DISPOSITION EVENT","13","WEEK 26","2014-01-04",2014-01-04,NA
"CDISCPILOT01","DS","CDISCPILOT01-701-1153",2,"Final Lab Visit","FINAL LAB VISIT","OTHER EVENT","13","WEEK 26","2014-01-04T14:25",2014-01-04,NA
"CDISCPILOT01","DS","CDISCPILOT01-701-1153",3,"Randomized","RANDOMIZED","PROTOCOL MILESTONE","3","BASELINE","2013-23-09",NA,NA
"CDISCPILOT01","DS","CDISCPILOT01-701-1162",1,"Screen Failure","SCREEN FAILURE","DISPOSITION EVENT","1","SCREENING 1","2013-18-04",NA,NA
"CDISCPILOT01","DS","CDISCPILOT01-701-1176",1,"Screen Failure","SCREEN FAILURE","DISPOSITION EVENT","1","SCREENING 1","2012-30-09",NA,NA
"CDISCPILOT01","DS","CDISCPILOT01-701-1180",1,"Adverse Event","ADVERSE EVENT","DISPOSITION EVENT","7","WEEK 6","2013-23-03",NA,NA
"CDISCPILOT01","DS","CDISCPILOT01-701-1180",2,"Final Lab Visit","FINAL LAB VISIT","OTHER EVENT","7","WEEK 6","2013-23-03T12:45",NA,NA
"CDISCPILOT01","DS","CDISCPILOT01-701-1180",3,"Randomized","RANDOMIZED","PROTOCOL MILESTONE","3","BASELINE","2013-12-02",2013-12-02,1
"CDISCPILOT01","DS","CDISCPILOT01-701-1181",1,"Adverse Event","ADVERSE EVENT","DISPOSITION EVENT","4","WEEK 2","2013-12-12",2013-12-12,215
"CDISCPILOT01","DS","CDISCPILOT01-701-1181",2,"Final Lab Visit","FINAL LAB VISIT","OTHER EVENT","4","WEEK 2","2013-12-12T12:09",2013-12-12,215
"CDISCPILOT01","DS","CDISCPILOT01-701-1181",3,"Final Retrieval Visit","FINAL RETRIEVAL VISIT","OTHER EVENT","201","RETRIEVAL","2014-23-05",NA,NA
"CDISCPILOT01","DS","CDISCPILOT01-701-1181",4,"Randomized","RANDOMIZED","PROTOCOL MILESTONE","3","BASELINE","2013-05-12",2013-05-12,1
"CDISCPILOT01","DS","CDISCPILOT01-701-1188",1,"Adverse Event","ADVERSE EVENT","DISPOSITION EVENT","7","WEEK 6","2013-25-03",NA,NA
"CDISCPILOT01","DS","CDISCPILOT01-701-1188",2,"Final Lab Visit","FINAL LAB VISIT","OTHER EVENT","7","WEEK 6","2013-25-03T15:08",NA,NA
"CDISCPILOT01","DS","CDISCPILOT01-701-1188",3,"Final Retrieval Visit","FINAL RETRIEVAL VISIT","OTHER EVENT","201","RETRIEVAL","2013-04-08",2013-04-08,NA
"CDISCPILOT01","DS","CDISCPILOT01-701-1188",4,"Randomized","RANDOMIZED","PROTOCOL MILESTONE","3","BASELINE","2013-15-02",NA,NA
"CDISCPILOT01","DS","CDISCPILOT01-701-1192",1,"Completed","COMPLETED","DISPOSITION EVENT","13","WEEK 26","2013-20-01",NA,NA
"CDISCPILOT01","DS","CDISCPILOT01-701-1192",2,"Final Lab Visit","FINAL LAB VISIT","OTHER EVENT","13","WEEK 26","2013-20-01T15:47",NA,NA
"CDISCPILOT01","DS","CDISCPILOT01-701-1192",3,"Randomized","RANDOMIZED","PROTOCOL MILESTONE","3","BASELINE","2012-22-07",NA,NA
"CDISCPILOT01","DS","CDISCPILOT01-701-1203",1,"Completed","COMPLETED","DISPOSITION EVENT","13","WEEK 26","2013-03-08",2013-03-08,35
"CDISCPILOT01","DS","CDISCPILOT01-701-1203",2,"Final Lab Visit","FINAL LAB VISIT","OTHER EVENT","13","WEEK 26","2013-03-08T10:10",2013-03-08,35
"CDISCPILOT01","DS","CDISCPILOT01-701-1203",3,"Randomized","RANDOMIZED","PROTOCOL MILESTONE","3","BASELINE","2013-02-02",2013-02-02,1
"CDISCPILOT01","DS","CDISCPILOT01-701-1211",1,"Death","DEATH","DISPOSITION EVENT","9","WEEK 12","2013-14-01",NA,NA
"CDISCPILOT01","DS","CDISCPILOT01-701-1211",2,"Final Lab Visit","FINAL LAB VISIT","OTHER EVENT","8","WEEK 8","2013-08-01T12:13",2013-08-01,NA
"CDISCPILOT01","DS","CDISCPILOT01-701-1211",3,"Randomized","RANDOMIZED","PROTOCOL MILESTONE","3","BASELINE","2012-15-11",NA,NA
"CDISCPILOT01","DS","CDISCPILOT01-701-1234",1,"Completed","COMPLETED","DISPOSITION EVENT","13","WEEK 26","2013-22-09",NA,NA
"CDISCPILOT01","DS","CDISCPILOT01-701-1234",2,"Final Lab Visit","FINAL LAB VISIT","OTHER EVENT","13","WEEK 26","2013-22-09T09:25",NA,NA
"CDISCPILOT01","DS","CDISCPILOT01-701-1234",3,"Randomized","RANDOMIZED","PROTOCOL MILESTONE","3","BASELINE","2013-30-03",NA,NA
"CDISCPILOT01","DS","CDISCPILOT01-701-1239",1,"Completed","COMPLETED","DISPOSITION EVENT","13","WEEK 26","2014-11-07",2014-11-07,7
"CDISCPILOT01","DS","CDISCPILOT01-701-1239",2,"Final Lab Visit","FINAL LAB VISIT","OTHER EVENT","13","WEEK 26","2014-11-07T15:40",2014-11-07,7
"CDISCPILOT01","DS","CDISCPILOT01-701-1239",3,"Randomized","RANDOMIZED","PROTOCOL MILESTONE","3","BASELINE","2014-11-01",2014-11-01,1
"CDISCPILOT01","DS","CDISCPILOT01-701-1240",1,"Screen Failure","SCREEN FAILURE","DISPOSITION EVENT","1","SCREENING 1","2013-22-09",NA,NA
"CDISCPILOT01","DS","CDISCPILOT01-701-1275",1,"Final Lab Visit","FINAL LAB VISIT","OTHER EVENT","10","WEEK 16","2014-14-06T12:35",NA,NA
"CDISCPILOT01","DS","CDISCPILOT01-701-1275",2,"Randomized","RANDOMIZED","PROTOCOL MILESTONE","3","BASELINE","2014-07-02",2014-07-02,1
"CDISCPILOT01","DS","CDISCPILOT01-701-1275",3,"Withdrawal by Subject","WITHDRAWAL BY SUBJECT","DISPOSITION EVENT","10","WEEK 16","2014-14-06",NA,NA
"CDISCPILOT01","DS","CDISCPILOT01-701-1287",1,"Completed","COMPLETED","DISPOSITION EVENT","13","WEEK 26","2014-26-07",NA,NA
"CDISCPILOT01","DS","CDISCPILOT01-701-1287",2,"Final Lab Visit","FINAL LAB VISIT","OTHER EVENT","13","WEEK 26","2014-26-07T13:15",NA,NA
"CDISCPILOT01","DS","CDISCPILOT01-701-1287",3,"Randomized","RANDOMIZED","PROTOCOL MILESTONE","3","BASELINE","2014-25-01",NA,NA
"CDISCPILOT01","DS","CDISCPILOT01-701-1294",1,"Adverse Event","ADVERSE EVENT","DISPOSITION EVENT","9","WEEK 12","2013-14-06",NA,NA
"CDISCPILOT01","DS","CDISCPILOT01-701-1294",2,"Final Lab Visit","FINAL LAB VISIT","OTHER EVENT","9","WEEK 12","2013-14-06T09:47",NA,NA
"CDISCPILOT01","DS","CDISCPILOT01-701-1294",3,"Final Retrieval Visit","FINAL RETRIEVAL VISIT","OTHER EVENT","201","RETRIEVAL","2013-08-10",2013-08-10,NA
"CDISCPILOT01","DS","CDISCPILOT01-701-1294",4,"Randomized","RANDOMIZED","PROTOCOL MILESTONE","3","BASELINE","2013-24-03",NA,NA
"CDISCPILOT01","DS","CDISCPILOT01-701-1302",1,"Adverse Event","ADVERSE EVENT","DISPOSITION EVENT","9","WEEK 12","2013-05-11",2013-05-11,NA
"CDISCPILOT01","DS","CDISCPILOT01-701-1302",2,"Final Lab Visit","FINAL LAB VISIT","OTHER EVENT","9","WEEK 12","2013-05-11T13:54",2013-05-11,NA
"CDISCPILOT01","DS","CDISCPILOT01-701-1302",3,"Final Retrieval Visit","FINAL RETRIEVAL VISIT","OTHER EVENT","201","RETRIEVAL","2014-13-02",NA,NA
"CDISCPILOT01","DS","CDISCPILOT01-701-1302",4,"Randomized","RANDOMIZED","PROTOCOL MILESTONE","3","BASELINE","2013-29-08",NA,NA
"CDISCPILOT01","DS","CDISCPILOT01-701-1307",1,"Screen Failure","SCREEN FAILURE","DISPOSITION EVENT","1","SCREENING 1","2013-08-12",2013-08-12,NA
"CDISCPILOT01","DS","CDISCPILOT01-701-1317",1,"Completed","COMPLETED","DISPOSITION EVENT","13","WEEK 26","2014-20-11",NA,NA
"CDISCPILOT01","DS","CDISCPILOT01-701-1317",2,"Final Lab Visit","FINAL LAB VISIT","OTHER EVENT","13","WEEK 26","2014-20-11T11:54",NA,NA
"CDISCPILOT01","DS","CDISCPILOT01-701-1317",3,"Randomized","RANDOMIZED","PROTOCOL MILESTONE","3","BASELINE","2014-22-05",NA,NA
"CDISCPILOT01","DS","CDISCPILOT01-701-1324",1,"Completed","COMPLETED","DISPOSITION EVENT","13","WEEK 26","2013-02-04",2013-02-04,361
"CDISCPILOT01","DS","CDISCPILOT01-701-1324",2,"Final Lab Visit","FINAL LAB VISIT","OTHER EVENT","13","WEEK 26","2013-02-04T11:35",2013-02-04,361
"CDISCPILOT01","DS","CDISCPILOT01-701-1324",3,"Randomized","RANDOMIZED","PROTOCOL MILESTONE","3","BASELINE","2012-02-10",2012-02-10,1
"CDISCPILOT01","DS","CDISCPILOT01-701-1341",1,"Adverse Event","ADVERSE EVENT","DISPOSITION EVENT","5","WEEK 4","2013-07-02",2013-07-02,63
"CDISCPILOT01","DS","CDISCPILOT01-701-1341",2,"Final Lab Visit","FINAL LAB VISIT","OTHER EVENT","5","WEEK 4","2013-07-02T15:16",2013-07-02,63
"CDISCPILOT01","DS","CDISCPILOT01-701-1341",3,"Randomized","RANDOMIZED","PROTOCOL MILESTONE","3","BASELINE","2013-05-01",2013-05-01,1
"CDISCPILOT01","DS","CDISCPILOT01-701-1345",1,"Final Lab Visit","FINAL LAB VISIT","OTHER EVENT","12","WEEK 24","2014-18-03T14:12",NA,NA
"CDISCPILOT01","DS","CDISCPILOT01-701-1345",2,"Randomized","RANDOMIZED","PROTOCOL MILESTONE","3","BASELINE","2013-08-10",2013-08-10,1
"CDISCPILOT01","DS","CDISCPILOT01-701-1345",3,"Study Terminated by Sponsor","STUDY TERMINATED BY SPONSOR","DISPOSITION EVENT","12","WEEK 24","2014-18-03",NA,NA
"CDISCPILOT01","DS","CDISCPILOT01-701-1356",1,"Screen Failure","SCREEN FAILURE","DISPOSITION EVENT","1","SCREENING 1","2014-01-04",2014-01-04,NA
"CDISCPILOT01","DS","CDISCPILOT01-701-1360",1,"Final Lab Visit","FINAL LAB VISIT","OTHER EVENT","4","WEEK 2","2013-14-08T15:17",NA,NA
"CDISCPILOT01","DS","CDISCPILOT01-701-1360",2,"Final Retrieval Visit","FINAL RETRIEVAL VISIT","OTHER EVENT","201","RETRIEVAL","2014-11-02",2014-11-02,NA
"CDISCPILOT01","DS","CDISCPILOT01-701-1360",3,"Physician Decision","PHYSICIAN DECISION","DISPOSITION EVENT","4","WEEK 2","2013-14-08",NA,NA
"CDISCPILOT01","DS","CDISCPILOT01-701-1360",4,"Randomized","RANDOMIZED","PROTOCOL MILESTONE","3","BASELINE","2013-31-07",NA,NA
"CDISCPILOT01","DS","CDISCPILOT01-701-1363",1,"Completed","COMPLETED","DISPOSITION EVENT","13","WEEK 26","2013-27-11",NA,NA
"CDISCPILOT01","DS","CDISCPILOT01-701-1363",2,"Final Lab Visit","FINAL LAB VISIT","OTHER EVENT","13","WEEK 26","2013-27-11T10:00",NA,NA
"CDISCPILOT01","DS","CDISCPILOT01-701-1363",3,"Randomized","RANDOMIZED","PROTOCOL MILESTONE","3","BASELINE","2013-30-05",NA,NA
"CDISCPILOT01","DS","CDISCPILOT01-701-1369",1,"Screen Failure","SCREEN FAILURE","DISPOSITION EVENT","1","SCREENING 1","2013-18-09",NA,NA
"CDISCPILOT01","DS","CDISCPILOT01-701-1383",1,"Completed","COMPLETED","DISPOSITION EVENT","13","WEEK 26","2013-06-08",2013-06-08,68
"CDISCPILOT01","DS","CDISCPILOT01-701-1383",2,"Final Lab Visit","FINAL LAB VISIT","OTHER EVENT","13","WEEK 26","2013-06-08T12:00",2013-06-08,68
"CDISCPILOT01","DS","CDISCPILOT01-701-1383",3,"Randomized","RANDOMIZED","PROTOCOL MILESTONE","3","BASELINE","2013-04-02",2013-04-02,1
"CDISCPILOT01","DS","CDISCPILOT01-701-1386",1,"Screen Failure","SCREEN FAILURE","DISPOSITION EVENT","1","SCREENING 1","2013-28-12",NA,NA
"CDISCPILOT01","DS","CDISCPILOT01-701-1387",1,"Final Lab Visit","FINAL LAB VISIT","OTHER EVENT","4","WEEK 2","2014-25-03T10:40",NA,NA
"CDISCPILOT01","DS","CDISCPILOT01-701-1387",2,"Final Retrieval Visit","FINAL RETRIEVAL VISIT","OTHER EVENT","201","RETRIEVAL","2014-27-08",NA,NA
"CDISCPILOT01","DS","CDISCPILOT01-701-1387",3,"Protocol Violation","PROTOCOL VIOLATION","DISPOSITION EVENT","4","WEEK 2","2014-25-03",NA,NA
"CDISCPILOT01","DS","CDISCPILOT01-701-1387",4,"Randomized","RANDOMIZED","PROTOCOL MILESTONE","3","BASELINE","2014-12-03",2014-12-03,1
"CDISCPILOT01","DS","CDISCPILOT01-701-1392",1,"Completed","COMPLETED","DISPOSITION EVENT","13","WEEK 26","2013-28-04",NA,NA
"CDISCPILOT01","DS","CDISCPILOT01-701-1392",2,"Final Lab Visit","FINAL LAB VISIT","OTHER EVENT","13","WEEK 26","2013-28-04T11:30",NA,NA
"CDISCPILOT01","DS","CDISCPILOT01-701-1392",3,"Randomized","RANDOMIZED","PROTOCOL MILESTONE","3","BASELINE","2012-28-10",NA,NA
"CDISCPILOT01","DS","CDISCPILOT01-701-1411",1,"Screen Failure","SCREEN FAILURE","DISPOSITION EVENT","1","SCREENING 1","2012-14-11",NA,NA
"CDISCPILOT01","DS","CDISCPILOT01-701-1415",1,"Completed","COMPLETED","DISPOSITION EVENT","13","WEEK 26","2014-24-03",NA,NA
"CDISCPILOT01","DS","CDISCPILOT01-701-1415",2,"Final Lab Visit","FINAL LAB VISIT","OTHER EVENT","13","WEEK 26","2014-24-03T12:34",NA,NA
"CDISCPILOT01","DS","CDISCPILOT01-701-1415",3,"Randomized","RANDOMIZED","PROTOCOL MILESTONE","3","BASELINE","2013-23-09",NA,NA
"CDISCPILOT01","DS","CDISCPILOT01-701-1429",1,"Final Lab Visit","FINAL LAB VISIT","OTHER EVENT","7","WEEK 6","2013-30-04T12:22",NA,NA
"CDISCPILOT01","DS","CDISCPILOT01-701-1429",2,"Randomized","RANDOMIZED","PROTOCOL MILESTONE","3","BASELINE","2013-19-03",NA,NA
"CDISCPILOT01","DS","CDISCPILOT01-701-1429",3,"Withdrawal by Subject","WITHDRAWAL BY SUBJECT","DISPOSITION EVENT","7","WEEK 6","2013-30-04",NA,NA
"CDISCPILOT01","DS","CDISCPILOT01-701-1440",1,"Completed","COMPLETED","DISPOSITION EVENT","13","WEEK 26","2014-05-02",2014-05-02,268
"CDISCPILOT01","DS","CDISCPILOT01-701-1440",2,"Final Lab Visit","FINAL LAB VISIT","OTHER EVENT","13","WEEK 26","2014-05-02T11:25",2014-05-02,268
"CDISCPILOT01","DS","CDISCPILOT01-701-1440",3,"Randomized","RANDOMIZED","PROTOCOL MILESTONE","3","BASELINE","2013-08-08",2013-08-08,1
"CDISCPILOT01","DS","CDISCPILOT01-701-1442",1,"Completed","COMPLETED","DISPOSITION EVENT","13","WEEK 26","2014-26-04",NA,NA
"CDISCPILOT01","DS","CDISCPILOT01-701-1442",2,"Final Lab Visit","FINAL LAB VISIT","OTHER EVENT","13","WEEK 26","2014-26-04T10:00",NA,NA
"CDISCPILOT01","DS","CDISCPILOT01-701-1442",3,"Randomized","RANDOMIZED","PROTOCOL MILESTONE","3","BASELINE","2013-26-10",NA,NA
"CDISCPILOT01","DS","CDISCPILOT01-701-1444",1,"Adverse Event","ADVERSE EVENT","DISPOSITION EVENT","7","WEEK 6","2013-13-02",NA,NA
"CDISCPILOT01","DS","CDISCPILOT01-701-1444",2,"Final Lab Visit","FINAL LAB VISIT","OTHER EVENT","7","WEEK 6","2013-13-02T15:53",NA,NA
"CDISCPILOT01","DS","CDISCPILOT01-701-1444",3,"Final Retrieval Visit","FINAL RETRIEVAL VISIT","OTHER EVENT","201","RETRIEVAL","2013-20-06",NA,NA
"CDISCPILOT01","DS","CDISCPILOT01-701-1444",4,"Randomized","RANDOMIZED","PROTOCOL MILESTONE","3","BASELINE","2013-05-01",2013-05-01,1
"CDISCPILOT01","DS","CDISCPILOT01-702-1082",1,"Final Lab Visit","FINAL LAB VISIT","OTHER EVENT","9","WEEK 12","2013-17-11T12:20",NA,NA
"CDISCPILOT01","DS","CDISCPILOT01-702-1082",2,"Randomized","RANDOMIZED","PROTOCOL MILESTONE","3","BASELINE","2013-26-07",NA,NA
"CDISCPILOT01","DS","CDISCPILOT01-702-1082",3,"Withdrawal by Subject","WITHDRAWAL BY SUBJECT","DISPOSITION EVENT","9","WEEK 12","2013-17-11",NA,NA
"CDISCPILOT01","DS","CDISCPILOT01-703-1042",1,"Completed","COMPLETED","DISPOSITION EVENT","13","WEEK 26","2013-31-08",NA,NA
"CDISCPILOT01","DS","CDISCPILOT01-703-1042",2,"Final Lab Visit","FINAL LAB VISIT","OTHER EVENT","13","WEEK 26","2013-31-08T11:00",NA,NA
"CDISCPILOT01","DS","CDISCPILOT01-703-1042",3,"Randomized","RANDOMIZED","PROTOCOL MILESTONE","3","BASELINE","2013-02-03",2013-02-03,1
"CDISCPILOT01","DS","CDISCPILOT01-703-1076",1,"Adverse Event","ADVERSE EVENT","DISPOSITION EVENT","9","WEEK 12","2013-24-12",NA,NA
"CDISCPILOT01","DS","CDISCPILOT01-703-1076",2,"Final Lab Visit","FINAL LAB VISIT","OTHER EVENT","9","WEEK 12","2013-24-12T13:05",NA,NA
"CDISCPILOT01","DS","CDISCPILOT01-703-1076",3,"Randomized","RANDOMIZED","PROTOCOL MILESTONE","3","BASELINE","2013-25-10",NA,NA
"CDISCPILOT01","DS","CDISCPILOT01-703-1086",1,"Adverse Event","ADVERSE EVENT","DISPOSITION EVENT","10","WEEK 16","2012-24-12",NA,NA
"CDISCPILOT01","DS","CDISCPILOT01-703-1086",2,"Final Lab Visit","FINAL LAB VISIT","OTHER EVENT","10","WEEK 16","2012-24-12T09:30",NA,NA
"CDISCPILOT01","DS","CDISCPILOT01-703-1086",3,"Final Retrieval Visit","FINAL RETRIEVAL VISIT","OTHER EVENT","201","RETRIEVAL","2013-26-03",NA,NA
"CDISCPILOT01","DS","CDISCPILOT01-703-1086",4,"Randomized","RANDOMIZED","PROTOCOL MILESTONE","3","BASELINE","2012-02-09",2012-02-09,1
"CDISCPILOT01","DS","CDISCPILOT01-703-1096",1,"Final Lab Visit","FINAL LAB VISIT","OTHER EVENT","5","WEEK 4","2013-23-02T17:10",NA,NA
"CDISCPILOT01","DS","CDISCPILOT01-703-1096",2,"Lost to Follow-Up","LOST TO FOLLOW-UP","DISPOSITION EVENT","7","WEEK 6","2013-29-03",NA,NA
"CDISCPILOT01","DS","CDISCPILOT01-703-1096",3,"Randomized","RANDOMIZED","PROTOCOL MILESTONE","3","BASELINE","2013-25-01",NA,NA
"CDISCPILOT01","DS","CDISCPILOT01-703-1100",1,"Completed","COMPLETED","DISPOSITION EVENT","13","WEEK 26","2013-14-09",NA,NA
"CDISCPILOT01","DS","CDISCPILOT01-703-1100",2,"Final Lab Visit","FINAL LAB VISIT","OTHER EVENT","13","WEEK 26","2013-14-09T15:00",NA,NA
"CDISCPILOT01","DS","CDISCPILOT01-703-1100",3,"Randomized","RANDOMIZED","PROTOCOL MILESTONE","3","BASELINE","2013-13-03",NA,NA
"CDISCPILOT01","DS","CDISCPILOT01-703-1119",1,"Adverse Event","ADVERSE EVENT","DISPOSITION EVENT","10","WEEK 16","2013-13-06",NA,NA
"CDISCPILOT01","DS","CDISCPILOT01-703-1119",2,"Final Lab Visit","FINAL LAB VISIT","OTHER EVENT","10","WEEK 16","2013-13-06T12:15",NA,NA
"CDISCPILOT01","DS","CDISCPILOT01-703-1119",3,"Final Retrieval Visit","FINAL RETRIEVAL VISIT","OTHER EVENT","201","RETRIEVAL","2013-24-08",NA,NA
"CDISCPILOT01","DS","CDISCPILOT01-703-1119",4,"Randomized","RANDOMIZED","PROTOCOL MILESTONE","3","BASELINE","2013-20-02",NA,NA
"CDISCPILOT01","DS","CDISCPILOT01-703-1175",1,"Final Lab Visit","FINAL LAB VISIT","OTHER EVENT","4","WEEK 2","2013-31-12T13:15",NA,NA
"CDISCPILOT01","DS","CDISCPILOT01-703-1175",2,"Protocol Violation","PROTOCOL VIOLATION","DISPOSITION EVENT","4","WEEK 2","2013-31-12",NA,NA
"CDISCPILOT01","DS","CDISCPILOT01-703-1175",3,"Randomized","RANDOMIZED","PROTOCOL MILESTONE","3","BASELINE","2013-20-12",NA,NA
"CDISCPILOT01","DS","CDISCPILOT01-703-1182",1,"Adverse Event","ADVERSE EVENT","DISPOSITION EVENT","8","WEEK 8","2013-12-12",2013-12-12,NA
"CDISCPILOT01","DS","CDISCPILOT01-703-1182",2,"Final Lab Visit","FINAL LAB VISIT","OTHER EVENT","8","WEEK 8","2013-12-12T13:10",2013-12-12,NA
"CDISCPILOT01","DS","CDISCPILOT01-703-1182",3,"Randomized","RANDOMIZED","PROTOCOL MILESTONE","3","BASELINE","2013-17-10",NA,NA
"CDISCPILOT01","DS","CDISCPILOT01-703-1197",1,"Final Lab Visit","FINAL LAB VISIT","OTHER EVENT","UNSCHEDULED 1.1","UNSCHEDULED 1.1","2013-01-06T10:00",2013-01-06,NA
"CDISCPILOT01","DS","CDISCPILOT01-703-1197",2,"Randomized","RANDOMIZED","PROTOCOL MILESTONE","3","BASELINE","2013-16-06",NA,NA
"CDISCPILOT01","DS","CDISCPILOT01-703-1197",3,"Withdrawal by Subject","WITHDRAWAL BY SUBJECT","DISPOSITION EVENT","4","WEEK 2","2013-22-07",NA,NA
"CDISCPILOT01","DS","CDISCPILOT01-703-1210",1,"Completed","COMPLETED","DISPOSITION EVENT","13","WEEK 26","2013-06-09",2013-06-09,NA
"CDISCPILOT01","DS","CDISCPILOT01-703-1210",2,"Final Lab Visit","FINAL LAB VISIT","OTHER EVENT","13","WEEK 26","2013-06-09T13:30",2013-06-09,NA
"CDISCPILOT01","DS","CDISCPILOT01-703-1210",3,"Randomized","RANDOMIZED","PROTOCOL MILESTONE","3","BASELINE","2013-16-03",NA,NA
"CDISCPILOT01","DS","CDISCPILOT01-703-1258",1,"Adverse Event","ADVERSE EVENT","DISPOSITION EVENT","13","WEEK 26","2013-21-01",NA,NA
"CDISCPILOT01","DS","CDISCPILOT01-703-1258",2,"Final Lab Visit","FINAL LAB VISIT","OTHER EVENT","12","WEEK 24","2012-31-12T11:30",NA,NA
"CDISCPILOT01","DS","CDISCPILOT01-703-1258",3,"Randomized","RANDOMIZED","PROTOCOL MILESTONE","3","BASELINE","2012-20-07",NA,NA
"CDISCPILOT01","DS","CDISCPILOT01-703-1279",1,"Final Lab Visit","FINAL LAB VISIT","OTHER EVENT","1","SCREENING 1","2013-27-04T11:00",NA,NA
"CDISCPILOT01","DS","CDISCPILOT01-703-1279",2,"Randomized","RANDOMIZED","PROTOCOL MILESTONE","3","BASELINE","2013-13-05",NA,NA
"CDISCPILOT01","DS","CDISCPILOT01-703-1279",3,"Withdrawal by Subject","WITHDRAWAL BY SUBJECT","DISPOSITION EVENT","4","WEEK 2","2013-22-06",NA,NA
"CDISCPILOT01","DS","CDISCPILOT01-703-1295",1,"Final Lab Visit","FINAL LAB VISIT","OTHER EVENT","11","WEEK 20","2014-19-05T14:45",NA,NA
"CDISCPILOT01","DS","CDISCPILOT01-703-1295",2,"Randomized","RANDOMIZED","PROTOCOL MILESTONE","3","BASELINE","2013-21-11",NA,NA
"CDISCPILOT01","DS","CDISCPILOT01-703-1295",3,"Withdrawal by Subject","WITHDRAWAL BY SUBJECT","DISPOSITION EVENT","11","WEEK 20","2014-19-05",NA,NA
"CDISCPILOT01","DS","CDISCPILOT01-703-1299",1,"Completed","COMPLETED","DISPOSITION EVENT","13","WEEK 26","2013-13-03",NA,NA
"CDISCPILOT01","DS","CDISCPILOT01-703-1299",2,"Final Lab Visit","FINAL LAB VISIT","OTHER EVENT","13","WEEK 26","2013-13-03T11:40",NA,NA
"CDISCPILOT01","DS","CDISCPILOT01-703-1299",3,"Randomized","RANDOMIZED","PROTOCOL MILESTONE","3","BASELINE","2012-12-09",2012-12-09,1
"CDISCPILOT01","DS","CDISCPILOT01-703-1335",1,"Final Lab Visit","FINAL LAB VISIT","OTHER EVENT","7","WEEK 6","2014-24-05T12:15",NA,NA
"CDISCPILOT01","DS","CDISCPILOT01-703-1335",2,"Protocol Violation","PROTOCOL VIOLATION","DISPOSITION EVENT","7","WEEK 6","2014-24-05",NA,NA
"CDISCPILOT01","DS","CDISCPILOT01-703-1335",3,"Randomized","RANDOMIZED","PROTOCOL MILESTONE","3","BASELINE","2014-17-03",NA,NA
"CDISCPILOT01","DS","CDISCPILOT01-703-1379",1,"Completed","COMPLETED","DISPOSITION EVENT","13","WEEK 26","2014-21-03",NA,NA
"CDISCPILOT01","DS","CDISCPILOT01-703-1379",2,"Final Lab Visit","FINAL LAB VISIT","OTHER EVENT","13","WEEK 26","2014-21-03T10:55",NA,NA
"CDISCPILOT01","DS","CDISCPILOT01-703-1379",3,"Randomized","RANDOMIZED","PROTOCOL MILESTONE","3","BASELINE","2013-22-09",NA,NA
"CDISCPILOT01","DS","CDISCPILOT01-703-1396",1,"Screen Failure","SCREEN FAILURE","DISPOSITION EVENT","1","SCREENING 1","2014-09-02",2014-09-02,NA
"CDISCPILOT01","DS","CDISCPILOT01-703-1403",1,"Adverse Event","ADVERSE EVENT","DISPOSITION EVENT","4","WEEK 2","2012-19-12",NA,NA
"CDISCPILOT01","DS","CDISCPILOT01-703-1403",2,"Final Lab Visit","FINAL LAB VISIT","OTHER EVENT","4","WEEK 2","2012-19-12T10:15",NA,NA
"CDISCPILOT01","DS","CDISCPILOT01-703-1403",3,"Randomized","RANDOMIZED","PROTOCOL MILESTONE","3","BASELINE","2012-12-12",2012-12-12,1
"CDISCPILOT01","DS","CDISCPILOT01-703-1439",1,"Completed","COMPLETED","DISPOSITION EVENT","13","WEEK 26","2014-11-09",2014-11-09,-24
"CDISCPILOT01","DS","CDISCPILOT01-703-1439",2,"Final Lab Visit","FINAL LAB VISIT","OTHER EVENT","13","WEEK 26","2014-11-09T12:40",2014-11-09,-24
"CDISCPILOT01","DS","CDISCPILOT01-703-1439",3,"Randomized","RANDOMIZED","PROTOCOL MILESTONE","3","BASELINE","2014-12-03",2014-12-03,1
"CDISCPILOT01","DS","CDISCPILOT01-704-1008",1,"Adverse Event","ADVERSE EVENT","DISPOSITION EVENT","7","WEEK 6","2013-25-02",NA,NA
"CDISCPILOT01","DS","CDISCPILOT01-704-1008",2,"Final Lab Visit","FINAL LAB VISIT","OTHER EVENT","7","WEEK 6","2013-25-02T11:00",NA,NA
"CDISCPILOT01","DS","CDISCPILOT01-704-1008",3,"Randomized","RANDOMIZED","PROTOCOL MILESTONE","3","BASELINE","2013-13-01",NA,NA
"CDISCPILOT01","DS","CDISCPILOT01-704-1009",1,"Final Lab Visit","FINAL LAB VISIT","OTHER EVENT","4","WEEK 2","2013-14-09T15:00",NA,NA
"CDISCPILOT01","DS","CDISCPILOT01-704-1009",2,"Randomized","RANDOMIZED","PROTOCOL MILESTONE","3","BASELINE","2013-27-08",NA,NA
"CDISCPILOT01","DS","CDISCPILOT01-704-1009",3,"Withdrawal by Subject","WITHDRAWAL BY SUBJECT","DISPOSITION EVENT","5","WEEK 4","2013-02-10",2013-02-10,NA
"CDISCPILOT01","DS","CDISCPILOT01-704-1010",1,"Final Lab Visit","FINAL LAB VISIT","OTHER EVENT","11","WEEK 20","2014-09-07T11:00",2014-09-07,NA
"CDISCPILOT01","DS","CDISCPILOT01-704-1010",2,"Randomized","RANDOMIZED","PROTOCOL MILESTONE","3","BASELINE","2014-21-02",NA,NA
"CDISCPILOT01","DS","CDISCPILOT01-704-1010",3,"Withdrawal by Subject","WITHDRAWAL BY SUBJECT","DISPOSITION EVENT","11","WEEK 20","2014-09-07",2014-09-07,NA
"CDISCPILOT01","DS","CDISCPILOT01-704-1017",1,"Adverse Event","ADVERSE EVENT","DISPOSITION EVENT","7","WEEK 6","2013-24-11",NA,NA
"CDISCPILOT01","DS","CDISCPILOT01-704-1017",2,"Final Lab Visit","FINAL LAB VISIT","OTHER EVENT","5","WEEK 4","2013-01-11T10:45",2013-01-11,-150
"CDISCPILOT01","DS","CDISCPILOT01-704-1017",3,"Randomized","RANDOMIZED","PROTOCOL MILESTONE","3","BASELINE","2013-06-10",2013-06-10,1
"CDISCPILOT01","DS","CDISCPILOT01-704-1025",1,"Adverse Event","ADVERSE EVENT","DISPOSITION EVENT","AMBUL ECG REMOVAL","AMBUL ECG REMOVAL","2013-29-11",NA,NA
"CDISCPILOT01","DS","CDISCPILOT01-704-1025",2,"Final Lab Visit","FINAL LAB VISIT","OTHER EVENT","AMBUL ECG REMOVAL","AMBUL ECG REMOVAL","2013-29-11T12:00",NA,NA
"CDISCPILOT01","DS","CDISCPILOT01-704-1025",3,"Randomized","RANDOMIZED","PROTOCOL MILESTONE","3","BASELINE","2013-27-09",NA,NA
"CDISCPILOT01","DS","CDISCPILOT01-704-1065",1,"Adverse Event","ADVERSE EVENT","DISPOSITION EVENT","9","WEEK 12","2013-24-12",NA,NA
"CDISCPILOT01","DS","CDISCPILOT01-704-1065",2,"Final Lab Visit","FINAL LAB VISIT","OTHER EVENT","9","WEEK 12","2013-24-12T11:45",NA,NA
"CDISCPILOT01","DS","CDISCPILOT01-704-1065",3,"Randomized","RANDOMIZED","PROTOCOL MILESTONE","3","BASELINE","2013-24-10",NA,NA
"CDISCPILOT01","DS","CDISCPILOT01-704-1074",1,"Adverse Event","ADVERSE EVENT","DISPOSITION EVENT","8","WEEK 8","2014-31-03",NA,NA
"CDISCPILOT01","DS","CDISCPILOT01-704-1074",2,"Final Lab Visit","FINAL LAB VISIT","OTHER EVENT","8","WEEK 8","2014-31-03T10:30",NA,NA
"CDISCPILOT01","DS","CDISCPILOT01-704-1074",3,"Randomized","RANDOMIZED","PROTOCOL MILESTONE","3","BASELINE","2014-22-01",NA,NA
"CDISCPILOT01","DS","CDISCPILOT01-704-1093",1,"Adverse Event","ADVERSE EVENT","DISPOSITION EVENT","10","WEEK 16","2013-20-06",NA,NA
"CDISCPILOT01","DS","CDISCPILOT01-704-1093",2,"Final Lab Visit","FINAL LAB VISIT","OTHER EVENT","10","WEEK 16","2013-20-06T11:10",NA,NA
"CDISCPILOT01","DS","CDISCPILOT01-704-1093",3,"Final Retrieval Visit","FINAL RETRIEVAL VISIT","OTHER EVENT","201","RETRIEVAL","2013-25-12",NA,NA
"CDISCPILOT01","DS","CDISCPILOT01-704-1093",4,"Randomized","RANDOMIZED","PROTOCOL MILESTONE","3","BASELINE","2013-15-03",NA,NA
"CDISCPILOT01","DS","CDISCPILOT01-704-1114",1,"Final Lab Visit","FINAL LAB VISIT","OTHER EVENT","12","WEEK 24","2013-08-07T09:56",2013-08-07,NA
"CDISCPILOT01","DS","CDISCPILOT01-704-1114",2,"Randomized","RANDOMIZED","PROTOCOL MILESTONE","3","BASELINE","2013-23-01",NA,NA
"CDISCPILOT01","DS","CDISCPILOT01-704-1114",3,"Withdrawal by Subject","WITHDRAWAL BY SUBJECT","DISPOSITION EVENT","12","WEEK 24","2013-08-07",2013-08-07,NA
"CDISCPILOT01","DS","CDISCPILOT01-704-1120",1,"Adverse Event","ADVERSE EVENT","DISPOSITION EVENT","9","WEEK 12","2014-03-02",2014-03-02,384
"CDISCPILOT01","DS","CDISCPILOT01-704-1120",2,"Final Lab Visit","FINAL LAB VISIT","OTHER EVENT","9","WEEK 12","2014-03-02T11:50",2014-03-02,384
"CDISCPILOT01","DS","CDISCPILOT01-704-1120",3,"Randomized","RANDOMIZED","PROTOCOL MILESTONE","3","BASELINE","2013-02-12",2013-02-12,1
"CDISCPILOT01","DS","CDISCPILOT01-704-1127",1,"Completed","COMPLETED","DISPOSITION EVENT","13","WEEK 26","2014-31-03",NA,NA
"CDISCPILOT01","DS","CDISCPILOT01-704-1127",2,"Final Lab Visit","FINAL LAB VISIT","OTHER EVENT","13","WEEK 26","2014-31-03T11:30",NA,NA
"CDISCPILOT01","DS","CDISCPILOT01-704-1127",3,"Randomized","RANDOMIZED","PROTOCOL MILESTONE","3","BASELINE","2013-02-10",2013-02-10,1
"CDISCPILOT01","DS","CDISCPILOT01-704-1135",1,"Completed","COMPLETED","DISPOSITION EVENT","13","WEEK 26","2014-16-05",NA,NA
"CDISCPILOT01","DS","CDISCPILOT01-704-1135",2,"Final Lab Visit","FINAL LAB VISIT","OTHER EVENT","13","WEEK 26","2014-16-05T09:45",NA,NA
"CDISCPILOT01","DS","CDISCPILOT01-704-1135",3,"Randomized","RANDOMIZED","PROTOCOL MILESTONE","3","BASELINE","2013-31-10",NA,NA
"CDISCPILOT01","DS","CDISCPILOT01-704-1164",1,"Completed","COMPLETED","DISPOSITION EVENT","13","WEEK 26","2013-04-04",2013-04-04,NA
"CDISCPILOT01","DS","CDISCPILOT01-704-1164",2,"Final Lab Visit","FINAL LAB VISIT","OTHER EVENT","13","WEEK 26","2013-04-04",2013-04-04,NA
"CDISCPILOT01","DS","CDISCPILOT01-704-1164",3,"Randomized","RANDOMIZED","PROTOCOL MILESTONE","3","BASELINE","2012-19-09",NA,NA
"CDISCPILOT01","DS","CDISCPILOT01-704-1218",1,"Completed","COMPLETED","DISPOSITION EVENT","13","WEEK 26","2013-27-05",NA,NA
"CDISCPILOT01","DS","CDISCPILOT01-704-1218",2,"Final Lab Visit","FINAL LAB VISIT","OTHER EVENT","13","WEEK 26","2013-27-05T11:20",NA,NA
"CDISCPILOT01","DS","CDISCPILOT01-704-1218",3,"Randomized","RANDOMIZED","PROTOCOL MILESTONE","3","BASELINE","2012-19-11",NA,NA
"CDISCPILOT01","DS","CDISCPILOT01-704-1233",1,"Final Lab Visit","FINAL LAB VISIT","OTHER EVENT","10","WEEK 16","2013-11-07T11:30",2013-11-07,NA
"CDISCPILOT01","DS","CDISCPILOT01-704-1233",2,"Randomized","RANDOMIZED","PROTOCOL MILESTONE","3","BASELINE","2013-21-03",NA,NA
"CDISCPILOT01","DS","CDISCPILOT01-704-1233",3,"Withdrawal by Subject","WITHDRAWAL BY SUBJECT","DISPOSITION EVENT","11","WEEK 20","2013-14-07",NA,NA
"CDISCPILOT01","DS","CDISCPILOT01-704-1241",1,"Adverse Event","ADVERSE EVENT","DISPOSITION EVENT","8","WEEK 8","2013-31-10",NA,NA
"CDISCPILOT01","DS","CDISCPILOT01-704-1241",2,"Final Lab Visit","FINAL LAB VISIT","OTHER EVENT","8","WEEK 8","2013-31-10T09:15",NA,NA
"CDISCPILOT01","DS","CDISCPILOT01-704-1241",3,"Randomized","RANDOMIZED","PROTOCOL MILESTONE","3","BASELINE","2013-25-08",NA,NA
"CDISCPILOT01","DS","CDISCPILOT01-704-1260",1,"Final Lab Visit","FINAL LAB VISIT","OTHER EVENT","8","WEEK 8","2012-24-10T15:45",NA,NA
"CDISCPILOT01","DS","CDISCPILOT01-704-1260",2,"Randomized","RANDOMIZED","PROTOCOL MILESTONE","3","BASELINE","2012-30-08",NA,NA
"CDISCPILOT01","DS","CDISCPILOT01-704-1260",3,"Withdrawal by Subject","WITHDRAWAL BY SUBJECT","DISPOSITION EVENT","9","WEEK 12","2013-18-01",NA,NA
"CDISCPILOT01","DS","CDISCPILOT01-704-1266",1,"Adverse Event","ADVERSE EVENT","DISPOSITION EVENT","8","WEEK 8","2013-06-12",2013-06-12,NA
"CDISCPILOT01","DS","CDISCPILOT01-704-1266",2,"Final Lab Visit","FINAL LAB VISIT","OTHER EVENT","8","WEEK 8","2013-06-12T13:15",2013-06-12,NA
"CDISCPILOT01","DS","CDISCPILOT01-704-1266",3,"Randomized","RANDOMIZED","PROTOCOL MILESTONE","3","BASELINE","2013-13-10",NA,NA
"CDISCPILOT01","DS","CDISCPILOT01-704-1323",1,"Adverse Event","ADVERSE EVENT","DISPOSITION EVENT","7","WEEK 6","2013-08-08",2013-08-08,2
"CDISCPILOT01","DS","CDISCPILOT01-704-1323",2,"Final Lab Visit","FINAL LAB VISIT","OTHER EVENT","5","WEEK 4","2013-04-08T13:45",2013-04-08,-121
"CDISCPILOT01","DS","CDISCPILOT01-704-1323",3,"Randomized","RANDOMIZED","PROTOCOL MILESTONE","3","BASELINE","2013-08-07",2013-08-07,1
"CDISCPILOT01","DS","CDISCPILOT01-704-1325",1,"Final Lab Visit","FINAL LAB VISIT","OTHER EVENT","10","WEEK 16","2014-06-08T13:30",2014-06-08,NA
"CDISCPILOT01","DS","CDISCPILOT01-704-1325",2,"Protocol Violation","PROTOCOL VIOLATION","DISPOSITION EVENT","10","WEEK 16","2014-06-08",2014-06-08,NA
"CDISCPILOT01","DS","CDISCPILOT01-704-1325",3,"Randomized","RANDOMIZED","PROTOCOL MILESTONE","3","BASELINE","2014-23-04",NA,NA
"CDISCPILOT01","DS","CDISCPILOT01-704-1332",1,"Adverse Event","ADVERSE EVENT","DISPOSITION EVENT","9","WEEK 12","2014-16-02",NA,NA
"CDISCPILOT01","DS","CDISCPILOT01-704-1332",2,"Final Lab Visit","FINAL LAB VISIT","OTHER EVENT","9","WEEK 12","2014-16-02T14:30",NA,NA
"CDISCPILOT01","DS","CDISCPILOT01-704-1332",3,"Randomized","RANDOMIZED","PROTOCOL MILESTONE","3","BASELINE","2013-09-12",2013-09-12,1
"CDISCPILOT01","DS","CDISCPILOT01-704-1351",1,"Completed","COMPLETED","DISPOSITION EVENT","13","WEEK 26","2014-18-04",NA,NA
"CDISCPILOT01","DS","CDISCPILOT01-704-1351",2,"Final Lab Visit","FINAL LAB VISIT","OTHER EVENT","13","WEEK 26","2014-18-04T10:30",NA,NA
"CDISCPILOT01","DS","CDISCPILOT01-704-1351",3,"Randomized","RANDOMIZED","PROTOCOL MILESTONE","3","BASELINE","2013-12-10",2013-12-10,1
"CDISCPILOT01","DS","CDISCPILOT01-704-1388",1,"Completed","COMPLETED","DISPOSITION EVENT","13","WEEK 26","2013-19-06",NA,NA
"CDISCPILOT01","DS","CDISCPILOT01-704-1388",2,"Final Lab Visit","FINAL LAB VISIT","OTHER EVENT","13","WEEK 26","2013-19-06T12:30",NA,NA
"CDISCPILOT01","DS","CDISCPILOT01-704-1388",3,"Randomized","RANDOMIZED","PROTOCOL MILESTONE","3","BASELINE","2012-07-12",2012-07-12,1
"CDISCPILOT01","DS","CDISCPILOT01-704-1435",1,"Final Lab Visit","FINAL LAB VISIT","OTHER EVENT","8","WEEK 8","2013-12-01T12:00",2013-12-01,NA
"CDISCPILOT01","DS","CDISCPILOT01-704-1435",2,"Randomized","RANDOMIZED","PROTOCOL MILESTONE","3","BASELINE","2012-17-11",NA,NA
"CDISCPILOT01","DS","CDISCPILOT01-704-1435",3,"Withdrawal by Subject","WITHDRAWAL BY SUBJECT","DISPOSITION EVENT","8","WEEK 8","2013-12-01",2013-12-01,NA
"CDISCPILOT01","DS","CDISCPILOT01-704-1445",1,"Death","DEATH","DISPOSITION EVENT","12","WEEK 24","2014-01-11",2014-01-11,-298
"CDISCPILOT01","DS","CDISCPILOT01-704-1445",2,"Final Lab Visit","FINAL LAB VISIT","OTHER EVENT","11","WEEK 20","2014-01-10T09:30",2014-01-10,-299
"CDISCPILOT01","DS","CDISCPILOT01-704-1445",3,"Randomized","RANDOMIZED","PROTOCOL MILESTONE","3","BASELINE","2014-11-05",2014-11-05,1
"CDISCPILOT01","DS","CDISCPILOT01-705-1011",1,"Screen Failure","SCREEN FAILURE","DISPOSITION EVENT","1","SCREENING 1","2013-01-09",2013-01-09,NA
"CDISCPILOT01","DS","CDISCPILOT01-705-1018",1,"Final Lab Visit","FINAL LAB VISIT","OTHER EVENT","1","SCREENING 1","2013-30-06T10:00",NA,NA
"CDISCPILOT01","DS","CDISCPILOT01-705-1018",2,"Randomized","RANDOMIZED","PROTOCOL MILESTONE","3","BASELINE","2013-05-07",2013-05-07,1
"CDISCPILOT01","DS","CDISCPILOT01-705-1018",3,"Withdrawal by Subject","WITHDRAWAL BY SUBJECT","DISPOSITION EVENT","4","WEEK 2","2013-12-07",2013-12-07,215
"CDISCPILOT01","DS","CDISCPILOT01-705-1031",1,"Final Lab Visit","FINAL LAB VISIT","OTHER EVENT","12","WEEK 24","2014-11-05T09:55",2014-11-05,NA
"CDISCPILOT01","DS","CDISCPILOT01-705-1031",2,"Lost to Follow-Up","LOST TO FOLLOW-UP","DISPOSITION EVENT","12","WEEK 24","2014-11-05",2014-11-05,NA
"CDISCPILOT01","DS","CDISCPILOT01-705-1031",3,"Randomized","RANDOMIZED","PROTOCOL MILESTONE","3","BASELINE","2013-27-11",NA,NA
"CDISCPILOT01","DS","CDISCPILOT01-705-1058",1,"Screen Failure","SCREEN FAILURE","DISPOSITION EVENT","1","SCREENING 1","2013-02-12",2013-02-12,NA
"CDISCPILOT01","DS","CDISCPILOT01-705-1059",1,"Adverse Event","ADVERSE EVENT","DISPOSITION EVENT","10","WEEK 16","2013-05-12",2013-05-12,5
"CDISCPILOT01","DS","CDISCPILOT01-705-1059",2,"Final Lab Visit","FINAL LAB VISIT","OTHER EVENT","10","WEEK 16","2013-05-12T09:55",2013-05-12,5
"CDISCPILOT01","DS","CDISCPILOT01-705-1059",3,"Final Retrieval Visit","FINAL RETRIEVAL VISIT","OTHER EVENT","201","RETRIEVAL","2014-06-02",2014-06-02,391
"CDISCPILOT01","DS","CDISCPILOT01-705-1059",4,"Randomized","RANDOMIZED","PROTOCOL MILESTONE","3","BASELINE","2013-05-08",2013-05-08,1
"CDISCPILOT01","DS","CDISCPILOT01-705-1112",1,"Screen Failure","SCREEN FAILURE","DISPOSITION EVENT","1","SCREENING 1","2014-23-02",NA,NA
"CDISCPILOT01","DS","CDISCPILOT01-705-1186",1,"Final Lab Visit","FINAL LAB VISIT","OTHER EVENT","UNSCHEDULED 5.1","UNSCHEDULED 5.1","2014-07-02T15:20",2014-07-02,-30
"CDISCPILOT01","DS","CDISCPILOT01-705-1186",2,"Physician Decision","PHYSICIAN DECISION","DISPOSITION EVENT","5","WEEK 4","2014-07-02",2014-07-02,-30
"CDISCPILOT01","DS","CDISCPILOT01-705-1186",3,"Randomized","RANDOMIZED","PROTOCOL MILESTONE","3","BASELINE","2014-08-01",2014-08-01,1
"CDISCPILOT01","DS","CDISCPILOT01-705-1199",1,"Adverse Event","ADVERSE EVENT","DISPOSITION EVENT","4","WEEK 2","2013-29-09",NA,NA
"CDISCPILOT01","DS","CDISCPILOT01-705-1199",2,"Final Lab Visit","FINAL LAB VISIT","OTHER EVENT","4","WEEK 2","2013-29-09T10:30",NA,NA
"CDISCPILOT01","DS","CDISCPILOT01-705-1199",3,"Randomized","RANDOMIZED","PROTOCOL MILESTONE","3","BASELINE","2013-16-09",NA,NA
"CDISCPILOT01","DS","CDISCPILOT01-705-1243",1,"Screen Failure","SCREEN FAILURE","DISPOSITION EVENT","1","SCREENING 1","2013-26-02",NA,NA
"CDISCPILOT01","DS","CDISCPILOT01-705-1280",1,"Completed","COMPLETED","DISPOSITION EVENT","13","WEEK 26","2014-25-07",NA,NA
"CDISCPILOT01","DS","CDISCPILOT01-705-1280",2,"Final Lab Visit","FINAL LAB VISIT","OTHER EVENT","13","WEEK 26","2014-24-07T15:30",NA,NA
"CDISCPILOT01","DS","CDISCPILOT01-705-1280",3,"Randomized","RANDOMIZED","PROTOCOL MILESTONE","3","BASELINE","2014-17-01",NA,NA
"CDISCPILOT01","DS","CDISCPILOT01-705-1281",1,"Adverse Event","ADVERSE EVENT","DISPOSITION EVENT","10","WEEK 16","2014-17-03",NA,NA
"CDISCPILOT01","DS","CDISCPILOT01-705-1281",2,"Final Lab Visit","FINAL LAB VISIT","OTHER EVENT","10","WEEK 16","2014-17-03T09:50",NA,NA
"CDISCPILOT01","DS","CDISCPILOT01-705-1281",3,"Randomized","RANDOMIZED","PROTOCOL MILESTONE","3","BASELINE","2013-28-11",NA,NA
"CDISCPILOT01","DS","CDISCPILOT01-705-1282",1,"Completed","COMPLETED","DISPOSITION EVENT","13","WEEK 26","2013-24-06",NA,NA
"CDISCPILOT01","DS","CDISCPILOT01-705-1282",2,"Final Lab Visit","FINAL LAB VISIT","OTHER EVENT","13","WEEK 26","2013-24-06T15:25",NA,NA
"CDISCPILOT01","DS","CDISCPILOT01-705-1282",3,"Randomized","RANDOMIZED","PROTOCOL MILESTONE","3","BASELINE","2012-26-12",NA,NA
"CDISCPILOT01","DS","CDISCPILOT01-705-1292",1,"Completed","COMPLETED","DISPOSITION EVENT","13","WEEK 26","2014-14-05",NA,NA
"CDISCPILOT01","DS","CDISCPILOT01-705-1292",2,"Final Lab Visit","FINAL LAB VISIT","OTHER EVENT","13","WEEK 26","2014-14-05T13:33",NA,NA
"CDISCPILOT01","DS","CDISCPILOT01-705-1292",3,"Randomized","RANDOMIZED","PROTOCOL MILESTONE","3","BASELINE","2013-14-10",NA,NA
"CDISCPILOT01","DS","CDISCPILOT01-705-1303",1,"Adverse Event","ADVERSE EVENT","DISPOSITION EVENT","11","WEEK 20","2014-02-06",2014-02-06,NA
"CDISCPILOT01","DS","CDISCPILOT01-705-1303",2,"Final Lab Visit","FINAL LAB VISIT","OTHER EVENT","10","WEEK 16","2014-07-04T14:27",2014-07-04,NA
"CDISCPILOT01","DS","CDISCPILOT01-705-1303",3,"Randomized","RANDOMIZED","PROTOCOL MILESTONE","3","BASELINE","2013-16-12",NA,NA
"CDISCPILOT01","DS","CDISCPILOT01-705-1310",1,"Adverse Event","ADVERSE EVENT","DISPOSITION EVENT","9","WEEK 12","2014-23-01",NA,NA
"CDISCPILOT01","DS","CDISCPILOT01-705-1310",2,"Final Lab Visit","FINAL LAB VISIT","OTHER EVENT","9","WEEK 12","2014-23-01T09:40",NA,NA
"CDISCPILOT01","DS","CDISCPILOT01-705-1310",3,"Randomized","RANDOMIZED","PROTOCOL MILESTONE","3","BASELINE","2013-02-11",2013-02-11,1
"CDISCPILOT01","DS","CDISCPILOT01-705-1349",1,"Completed","COMPLETED","DISPOSITION EVENT","13","WEEK 26","2013-08-09",2013-08-09,-55
"CDISCPILOT01","DS","CDISCPILOT01-705-1349",2,"Final Lab Visit","FINAL LAB VISIT","OTHER EVENT","13","WEEK 26","2013-08-09T10:10",2013-08-09,-55
"CDISCPILOT01","DS","CDISCPILOT01-705-1349",3,"Randomized","RANDOMIZED","PROTOCOL MILESTONE","3","BASELINE","2013-10-03",2013-10-03,1
"CDISCPILOT01","DS","CDISCPILOT01-705-1377",1,"Final Lab Visit","FINAL LAB VISIT","OTHER EVENT","5","WEEK 4","2014-07-02T09:25",2014-07-02,93
"CDISCPILOT01","DS","CDISCPILOT01-705-1377",2,"Randomized","RANDOMIZED","PROTOCOL MILESTONE","3","BASELINE","2014-04-01",2014-04-01,1
"CDISCPILOT01","DS","CDISCPILOT01-705-1377",3,"Withdrawal by Subject","WITHDRAWAL BY SUBJECT","DISPOSITION EVENT","7","WEEK 6","2014-07-03",2014-07-03,94
"CDISCPILOT01","DS","CDISCPILOT01-705-1382",1,"Final Lab Visit","FINAL LAB VISIT","OTHER EVENT","1","SCREENING 1","2013-09-05T11:15",2013-09-05,NA
"CDISCPILOT01","DS","CDISCPILOT01-705-1382",2,"Protocol Violation","PROTOCOL VIOLATION","DISPOSITION EVENT","4","WEEK 2","2013-13-05",NA,NA
"CDISCPILOT01","DS","CDISCPILOT01-705-1382",3,"Randomized","RANDOMIZED","PROTOCOL MILESTONE","3","BASELINE","2013-13-05",NA,NA
"CDISCPILOT01","DS","CDISCPILOT01-705-1393",1,"Adverse Event","ADVERSE EVENT","DISPOSITION EVENT","11","WEEK 20","2013-20-02",NA,NA
"CDISCPILOT01","DS","CDISCPILOT01-705-1393",2,"Final Lab Visit","FINAL LAB VISIT","OTHER EVENT","11","WEEK 20","2013-20-02T16:35",NA,NA
"CDISCPILOT01","DS","CDISCPILOT01-705-1393",3,"Randomized","RANDOMIZED","PROTOCOL MILESTONE","3","BASELINE","2012-07-09",2012-07-09,1
"CDISCPILOT01","DS","CDISCPILOT01-705-1421",1,"Screen Failure","SCREEN FAILURE","DISPOSITION EVENT","1","SCREENING 1","2013-14-01",NA,NA
"CDISCPILOT01","DS","CDISCPILOT01-705-1431",1,"Completed","COMPLETED","DISPOSITION EVENT","13","WEEK 26","2013-19-12",NA,NA
"CDISCPILOT01","DS","CDISCPILOT01-705-1431",2,"Final Lab Visit","FINAL LAB VISIT","OTHER EVENT","13","WEEK 26","2013-19-12T10:05",NA,NA
"CDISCPILOT01","DS","CDISCPILOT01-705-1431",3,"Randomized","RANDOMIZED","PROTOCOL MILESTONE","3","BASELINE","2013-23-06",NA,NA
"CDISCPILOT01","DS","CDISCPILOT01-706-1041",1,"Completed","COMPLETED","DISPOSITION EVENT","13","WEEK 26","2014-29-07",NA,NA
"CDISCPILOT01","DS","CDISCPILOT01-706-1041",2,"Final Lab Visit","FINAL LAB VISIT","OTHER EVENT","13","WEEK 26","2014-29-07T13:45",NA,NA
"CDISCPILOT01","DS","CDISCPILOT01-706-1041",3,"Randomized","RANDOMIZED","PROTOCOL MILESTONE","3","BASELINE","2013-31-12",NA,NA
"CDISCPILOT01","DS","CDISCPILOT01-706-1049",1,"Adverse Event","ADVERSE EVENT","DISPOSITION EVENT","7","WEEK 6","2013-25-06",NA,NA
"CDISCPILOT01","DS","CDISCPILOT01-706-1049",2,"Final Lab Visit","FINAL LAB VISIT","OTHER EVENT","7","WEEK 6","2013-25-06T11:00",NA,NA
"CDISCPILOT01","DS","CDISCPILOT01-706-1049",3,"Final Retrieval Visit","FINAL RETRIEVAL VISIT","OTHER EVENT","201","RETRIEVAL","2013-26-11",NA,NA
"CDISCPILOT01","DS","CDISCPILOT01-706-1049",4,"Randomized","RANDOMIZED","PROTOCOL MILESTONE","3","BASELINE","2013-14-05",NA,NA
"CDISCPILOT01","DS","CDISCPILOT01-706-1384",1,"Adverse Event","ADVERSE EVENT","DISPOSITION EVENT","4","WEEK 2","2012-29-09",NA,NA
"CDISCPILOT01","DS","CDISCPILOT01-706-1384",2,"Final Lab Visit","FINAL LAB VISIT","OTHER EVENT","4","WEEK 2","2012-29-09T10:00",NA,NA
"CDISCPILOT01","DS","CDISCPILOT01-706-1384",3,"Final Retrieval Visit","FINAL RETRIEVAL VISIT","OTHER EVENT","201","RETRIEVAL","2013-22-06",NA,NA
"CDISCPILOT01","DS","CDISCPILOT01-706-1384",4,"Randomized","RANDOMIZED","PROTOCOL MILESTONE","3","BASELINE","2012-15-09",NA,NA
"CDISCPILOT01","DS","CDISCPILOT01-707-1037",1,"Final Lab Visit","FINAL LAB VISIT","OTHER EVENT","4","WEEK 2","2014-08-01T12:40",2014-08-01,NA
"CDISCPILOT01","DS","CDISCPILOT01-707-1037",2,"Randomized","RANDOMIZED","PROTOCOL MILESTONE","3","BASELINE","2013-20-12",NA,NA
"CDISCPILOT01","DS","CDISCPILOT01-707-1037",3,"Withdrawal by Subject","WITHDRAWAL BY SUBJECT","DISPOSITION EVENT","4","WEEK 2","2014-08-01",2014-08-01,NA
"CDISCPILOT01","DS","CDISCPILOT01-707-1206",1,"Completed","COMPLETED","DISPOSITION EVENT","13","WEEK 26","2014-27-04",NA,NA
"CDISCPILOT01","DS","CDISCPILOT01-707-1206",2,"Final Lab Visit","FINAL LAB VISIT","OTHER EVENT","13","WEEK 26","2014-27-04T08:00",NA,NA
"CDISCPILOT01","DS","CDISCPILOT01-707-1206",3,"Randomized","RANDOMIZED","PROTOCOL MILESTONE","3","BASELINE","2013-28-10",NA,NA
"CDISCPILOT01","DS","CDISCPILOT01-707-1276",1,"Screen Failure","SCREEN FAILURE","DISPOSITION EVENT","1","SCREENING 1","2012-12-10",2012-12-10,NA
"CDISCPILOT01","DS","CDISCPILOT01-707-1430",1,"Screen Failure","SCREEN FAILURE","DISPOSITION EVENT","1","SCREENING 1","2014-14-02",NA,NA
"CDISCPILOT01","DS","CDISCPILOT01-707-1434",1,"Screen Failure","SCREEN FAILURE","DISPOSITION EVENT","1","SCREENING 1","2013-25-07",NA,NA
"CDISCPILOT01","DS","CDISCPILOT01-708-1013",1,"Screen Failure","SCREEN FAILURE","DISPOSITION EVENT","1","SCREENING 1","2012-13-10",NA,NA
"CDISCPILOT01","DS","CDISCPILOT01-708-1019",1,"Adverse Event","ADVERSE EVENT","DISPOSITION EVENT","4","WEEK 2","2014-23-01",NA,NA
"CDISCPILOT01","DS","CDISCPILOT01-708-1019",2,"Final Lab Visit","FINAL LAB VISIT","OTHER EVENT","4","WEEK 2","2014-23-01T10:10",NA,NA
"CDISCPILOT01","DS","CDISCPILOT01-708-1019",3,"Randomized","RANDOMIZED","PROTOCOL MILESTONE","3","BASELINE","2013-20-12",NA,NA
"CDISCPILOT01","DS","CDISCPILOT01-708-1032",1,"Adverse Event","ADVERSE EVENT","DISPOSITION EVENT","5","WEEK 4","2013-09-03",2013-09-03,2
"CDISCPILOT01","DS","CDISCPILOT01-708-1032",2,"Final Lab Visit","FINAL LAB VISIT","OTHER EVENT","5","WEEK 4","2013-09-03T10:45",2013-09-03,2
"CDISCPILOT01","DS","CDISCPILOT01-708-1032",3,"Randomized","RANDOMIZED","PROTOCOL MILESTONE","3","BASELINE","2013-09-02",2013-09-02,1
"CDISCPILOT01","DS","CDISCPILOT01-708-1054",1,"Screen Failure","SCREEN FAILURE","DISPOSITION EVENT","1","SCREENING 1","2014-14-02",NA,NA
"CDISCPILOT01","DS","CDISCPILOT01-708-1067",1,"Screen Failure","SCREEN FAILURE","DISPOSITION EVENT","1","SCREENING 1","2013-07-02",2013-07-02,NA
"CDISCPILOT01","DS","CDISCPILOT01-708-1084",1,"Completed","COMPLETED","DISPOSITION EVENT","13","WEEK 26","2013-11-11",2013-11-11,68
"CDISCPILOT01","DS","CDISCPILOT01-708-1084",2,"Final Lab Visit","FINAL LAB VISIT","OTHER EVENT","13","WEEK 26","2013-11-11T10:00",2013-11-11,68
"CDISCPILOT01","DS","CDISCPILOT01-708-1084",3,"Randomized","RANDOMIZED","PROTOCOL MILESTONE","3","BASELINE","2013-09-05",2013-09-05,1
"CDISCPILOT01","DS","CDISCPILOT01-708-1087",1,"Completed","COMPLETED","DISPOSITION EVENT","13","WEEK 26","2013-28-04",NA,NA
"CDISCPILOT01","DS","CDISCPILOT01-708-1087",2,"Final Lab Visit","FINAL LAB VISIT","OTHER EVENT","13","WEEK 26","2013-28-04T12:40",NA,NA
"CDISCPILOT01","DS","CDISCPILOT01-708-1087",3,"Randomized","RANDOMIZED","PROTOCOL MILESTONE","3","BASELINE","2012-22-10",NA,NA
"CDISCPILOT01","DS","CDISCPILOT01-708-1104",1,"Screen Failure","SCREEN FAILURE","DISPOSITION EVENT","1","SCREENING 1","2014-23-01",NA,NA
"CDISCPILOT01","DS","CDISCPILOT01-708-1158",1,"Adverse Event","ADVERSE EVENT","DISPOSITION EVENT","7","WEEK 6","2014-22-03",NA,NA
"CDISCPILOT01","DS","CDISCPILOT01-708-1158",2,"Final Lab Visit","FINAL LAB VISIT","OTHER EVENT","7","WEEK 6","2014-22-03T11:15",NA,NA
"CDISCPILOT01","DS","CDISCPILOT01-708-1158",3,"Randomized","RANDOMIZED","PROTOCOL MILESTONE","3","BASELINE","2014-08-02",2014-08-02,1
"CDISCPILOT01","DS","CDISCPILOT01-708-1171",1,"Completed","COMPLETED","DISPOSITION EVENT","13","WEEK 26","2013-04-06",2013-04-06,299
"CDISCPILOT01","DS","CDISCPILOT01-708-1171",2,"Final Lab Visit","FINAL LAB VISIT","OTHER EVENT","13","WEEK 26","2013-03-06T10:40",2013-03-06,268
"CDISCPILOT01","DS","CDISCPILOT01-708-1171",3,"Randomized","RANDOMIZED","PROTOCOL MILESTONE","3","BASELINE","2012-06-12",2012-06-12,1
"CDISCPILOT01","DS","CDISCPILOT01-708-1178",1,"Final Lab Visit","FINAL LAB VISIT","OTHER EVENT","9","WEEK 12","2014-06-04T08:50",2014-06-04,NA
"CDISCPILOT01","DS","CDISCPILOT01-708-1178",2,"Physician Decision","PHYSICIAN DECISION","DISPOSITION EVENT","9","WEEK 12","2014-06-04",2014-06-04,NA
"CDISCPILOT01","DS","CDISCPILOT01-708-1178",3,"Randomized","RANDOMIZED","PROTOCOL MILESTONE","3","BASELINE","2013-29-12",NA,NA
"CDISCPILOT01","DS","CDISCPILOT01-708-1184",1,"Screen Failure","SCREEN FAILURE","DISPOSITION EVENT","1","SCREENING 1","2013-14-01",NA,NA
"CDISCPILOT01","DS","CDISCPILOT01-708-1213",1,"Adverse Event","ADVERSE EVENT","DISPOSITION EVENT","5","WEEK 4","2013-26-02",NA,NA
"CDISCPILOT01","DS","CDISCPILOT01-708-1213",2,"Final Lab Visit","FINAL LAB VISIT","OTHER EVENT","4","WEEK 2","2013-22-02T11:05",NA,NA
"CDISCPILOT01","DS","CDISCPILOT01-708-1213",3,"Randomized","RANDOMIZED","PROTOCOL MILESTONE","3","BASELINE","2013-09-02",2013-09-02,1
"CDISCPILOT01","DS","CDISCPILOT01-708-1216",1,"Adverse Event","ADVERSE EVENT","DISPOSITION EVENT","7","WEEK 6","2012-06-12",2012-06-12,NA
"CDISCPILOT01","DS","CDISCPILOT01-708-1216",2,"Final Lab Visit","FINAL LAB VISIT","OTHER EVENT","7","WEEK 6","2012-06-12T11:50",2012-06-12,NA
"CDISCPILOT01","DS","CDISCPILOT01-708-1216",3,"Randomized","RANDOMIZED","PROTOCOL MILESTONE","3","BASELINE","2012-24-10",NA,NA
"CDISCPILOT01","DS","CDISCPILOT01-708-1236",1,"Final Lab Visit","FINAL LAB VISIT","OTHER EVENT","UNSCHEDULED 1.1","UNSCHEDULED 1.1","2013-19-09T10:35",NA,NA
"CDISCPILOT01","DS","CDISCPILOT01-708-1236",2,"Randomized","RANDOMIZED","PROTOCOL MILESTONE","3","BASELINE","2013-21-09",NA,NA
"CDISCPILOT01","DS","CDISCPILOT01-708-1236",3,"Withdrawal by Subject","WITHDRAWAL BY SUBJECT","DISPOSITION EVENT","4","WEEK 2","2013-26-09",NA,NA
"CDISCPILOT01","DS","CDISCPILOT01-708-1242",1,"Screen Failure","SCREEN FAILURE","DISPOSITION EVENT","1","SCREENING 1","2012-13-08",NA,NA
"CDISCPILOT01","DS","CDISCPILOT01-708-1253",1,"Completed","COMPLETED","DISPOSITION EVENT","13","WEEK 26","2013-05-11",2013-05-11,-55
"CDISCPILOT01","DS","CDISCPILOT01-708-1253",2,"Final Lab Visit","FINAL LAB VISIT","OTHER EVENT","13","WEEK 26","2013-04-11T13:40",2013-04-11,-85
"CDISCPILOT01","DS","CDISCPILOT01-708-1253",3,"Randomized","RANDOMIZED","PROTOCOL MILESTONE","3","BASELINE","2013-07-05",2013-07-05,1
"CDISCPILOT01","DS","CDISCPILOT01-708-1272",1,"Final Lab Visit","FINAL LAB VISIT","OTHER EVENT","8","WEEK 8","2013-04-04T11:05",2013-04-04,-59
"CDISCPILOT01","DS","CDISCPILOT01-708-1272",2,"Randomized","RANDOMIZED","PROTOCOL MILESTONE","3","BASELINE","2013-06-02",2013-06-02,1
"CDISCPILOT01","DS","CDISCPILOT01-708-1272",3,"Withdrawal by Subject","WITHDRAWAL BY SUBJECT","DISPOSITION EVENT","8","WEEK 8","2013-04-04",2013-04-04,-59
"CDISCPILOT01","DS","CDISCPILOT01-708-1286",1,"Completed","COMPLETED","DISPOSITION EVENT","13","WEEK 26","2014-08-03",2014-08-03,299
"CDISCPILOT01","DS","CDISCPILOT01-708-1286",2,"Final Lab Visit","FINAL LAB VISIT","OTHER EVENT","13","WEEK 26","2014-08-03T09:50",2014-08-03,299
"CDISCPILOT01","DS","CDISCPILOT01-708-1286",3,"Randomized","RANDOMIZED","PROTOCOL MILESTONE","3","BASELINE","2013-10-09",2013-10-09,1
"CDISCPILOT01","DS","CDISCPILOT01-708-1296",1,"Completed","COMPLETED","DISPOSITION EVENT","13","WEEK 26","2013-12-12",2013-12-12,NA
"CDISCPILOT01","DS","CDISCPILOT01-708-1296",2,"Final Lab Visit","FINAL LAB VISIT","OTHER EVENT","13","WEEK 26","2013-12-12T09:30",2013-12-12,NA
"CDISCPILOT01","DS","CDISCPILOT01-708-1296",3,"Randomized","RANDOMIZED","PROTOCOL MILESTONE","3","BASELINE","2013-14-06",NA,NA
"CDISCPILOT01","DS","CDISCPILOT01-708-1297",1,"Adverse Event","ADVERSE EVENT","DISPOSITION EVENT","10","WEEK 16","2013-08-05",2013-08-05,NA
"CDISCPILOT01","DS","CDISCPILOT01-708-1297",2,"Final Lab Visit","FINAL LAB VISIT","OTHER EVENT","10","WEEK 16","2013-08-05T10:30",2013-08-05,NA
"CDISCPILOT01","DS","CDISCPILOT01-708-1297",3,"Randomized","RANDOMIZED","PROTOCOL MILESTONE","3","BASELINE","2013-25-01",NA,NA
"CDISCPILOT01","DS","CDISCPILOT01-708-1316",1,"Completed","COMPLETED","DISPOSITION EVENT","13","WEEK 26","2014-01-03",2014-01-03,NA
"CDISCPILOT01","DS","CDISCPILOT01-708-1316",2,"Final Lab Visit","FINAL LAB VISIT","OTHER EVENT","13","WEEK 26","2014-01-03T10:25",2014-01-03,NA
"CDISCPILOT01","DS","CDISCPILOT01-708-1316",3,"Randomized","RANDOMIZED","PROTOCOL MILESTONE","3","BASELINE","2013-23-08",NA,NA
"CDISCPILOT01","DS","CDISCPILOT01-708-1336",1,"Completed","COMPLETED","DISPOSITION EVENT","13","WEEK 26","2013-05-06",2013-05-06,299
"CDISCPILOT01","DS","CDISCPILOT01-708-1336",2,"Final Lab Visit","FINAL LAB VISIT","OTHER EVENT","13","WEEK 26","2013-05-06",2013-05-06,299
"CDISCPILOT01","DS","CDISCPILOT01-708-1336",3,"Randomized","RANDOMIZED","PROTOCOL MILESTONE","3","BASELINE","2012-07-12",2012-07-12,1
"CDISCPILOT01","DS","CDISCPILOT01-708-1342",1,"Completed","COMPLETED","DISPOSITION EVENT","13","WEEK 26","2013-28-06",NA,NA
"CDISCPILOT01","DS","CDISCPILOT01-708-1342",2,"Final Lab Visit","FINAL LAB VISIT","OTHER EVENT","13","WEEK 26","2013-28-06T09:40",NA,NA
"CDISCPILOT01","DS","CDISCPILOT01-708-1342",3,"Randomized","RANDOMIZED","PROTOCOL MILESTONE","3","BASELINE","2012-29-12",NA,NA
"CDISCPILOT01","DS","CDISCPILOT01-708-1347",1,"Adverse Event","ADVERSE EVENT","DISPOSITION EVENT","9","WEEK 12","2013-18-06",NA,NA
"CDISCPILOT01","DS","CDISCPILOT01-708-1347",2,"Final Lab Visit","FINAL LAB VISIT","OTHER EVENT","9","WEEK 12","2013-18-06T09:20",NA,NA
"CDISCPILOT01","DS","CDISCPILOT01-708-1347",3,"Randomized","RANDOMIZED","PROTOCOL MILESTONE","3","BASELINE","2013-20-04",NA,NA
"CDISCPILOT01","DS","CDISCPILOT01-708-1348",1,"Completed","COMPLETED","DISPOSITION EVENT","13","WEEK 26","2014-13-02",NA,NA
"CDISCPILOT01","DS","CDISCPILOT01-708-1348",2,"Final Lab Visit","FINAL LAB VISIT","OTHER EVENT","13","WEEK 26","2014-13-02T10:25",NA,NA
"CDISCPILOT01","DS","CDISCPILOT01-708-1348",3,"Randomized","RANDOMIZED","PROTOCOL MILESTONE","3","BASELINE","2013-05-08",2013-05-08,1
"CDISCPILOT01","DS","CDISCPILOT01-708-1352",1,"Screen Failure","SCREEN FAILURE","DISPOSITION EVENT","1","SCREENING 1","2013-16-09",NA,NA
"CDISCPILOT01","DS","CDISCPILOT01-708-1353",1,"Adverse Event","ADVERSE EVENT","DISPOSITION EVENT","8","WEEK 8","2013-10-09",2013-10-09,186
"CDISCPILOT01","DS","CDISCPILOT01-708-1353",2,"Final Lab Visit","FINAL LAB VISIT","OTHER EVENT","8","WEEK 8","2013-10-09T13:15",2013-10-09,186
"CDISCPILOT01","DS","CDISCPILOT01-708-1353",3,"Randomized","RANDOMIZED","PROTOCOL MILESTONE","3","BASELINE","2013-04-07",2013-04-07,1
"CDISCPILOT01","DS","CDISCPILOT01-708-1372",1,"Final Lab Visit","FINAL LAB VISIT","OTHER EVENT","1","SCREENING 1","2013-03-04T11:00",2013-03-04,-275
"CDISCPILOT01","DS","CDISCPILOT01-708-1372",2,"Protocol Violation","PROTOCOL VIOLATION","DISPOSITION EVENT","4","WEEK 2","2013-10-05",2013-10-05,-60
"CDISCPILOT01","DS","CDISCPILOT01-708-1372",3,"Randomized","RANDOMIZED","PROTOCOL MILESTONE","3","BASELINE","2013-12-04",2013-12-04,1
"CDISCPILOT01","DS","CDISCPILOT01-708-1378",1,"Final Lab Visit","FINAL LAB VISIT","OTHER EVENT","11","WEEK 20","2014-28-01T13:00",NA,NA
"CDISCPILOT01","DS","CDISCPILOT01-708-1378",2,"Randomized","RANDOMIZED","PROTOCOL MILESTONE","3","BASELINE","2013-03-09",2013-03-09,1
"CDISCPILOT01","DS","CDISCPILOT01-708-1378",3,"Study Terminated by Sponsor","STUDY TERMINATED BY SPONSOR","DISPOSITION EVENT","11","WEEK 20","2014-28-01",NA,NA
"CDISCPILOT01","DS","CDISCPILOT01-708-1406",1,"Completed","COMPLETED","DISPOSITION EVENT","13","WEEK 26","2014-02-07",2014-02-07,NA
"CDISCPILOT01","DS","CDISCPILOT01-708-1406",2,"Final Lab Visit","FINAL LAB VISIT","OTHER EVENT","13","WEEK 26","2014-02-07T13:45",2014-02-07,NA
"CDISCPILOT01","DS","CDISCPILOT01-708-1406",3,"Randomized","RANDOMIZED","PROTOCOL MILESTONE","3","BASELINE","2013-26-12",NA,NA
"CDISCPILOT01","DS","CDISCPILOT01-708-1428",1,"Adverse Event","ADVERSE EVENT","DISPOSITION EVENT","8","WEEK 8","2014-31-01",NA,NA
"CDISCPILOT01","DS","CDISCPILOT01-708-1428",2,"Final Lab Visit","FINAL LAB VISIT","OTHER EVENT","8","WEEK 8","2014-31-01T11:10",NA,NA
"CDISCPILOT01","DS","CDISCPILOT01-708-1428",3,"Randomized","RANDOMIZED","PROTOCOL MILESTONE","3","BASELINE","2013-09-11",2013-09-11,1
"CDISCPILOT01","DS","CDISCPILOT01-709-1001",1,"Completed","COMPLETED","DISPOSITION EVENT","13","WEEK 26","2014-08-04",2014-08-04,360
"CDISCPILOT01","DS","CDISCPILOT01-709-1001",2,"Final Lab Visit","FINAL LAB VISIT","OTHER EVENT","12","WEEK 24","2014-17-03T11:10",NA,NA
"CDISCPILOT01","DS","CDISCPILOT01-709-1001",3,"Randomized","RANDOMIZED","PROTOCOL MILESTONE","3","BASELINE","2013-08-10",2013-08-10,1
"CDISCPILOT01","DS","CDISCPILOT01-709-1007",1,"Adverse Event","ADVERSE EVENT","DISPOSITION EVENT","5","WEEK 4","2012-01-09",2012-01-09,NA
"CDISCPILOT01","DS","CDISCPILOT01-709-1007",2,"Final Lab Visit","FINAL LAB VISIT","OTHER EVENT","5","WEEK 4","2012-01-09T12:30",2012-01-09,NA
"CDISCPILOT01","DS","CDISCPILOT01-709-1007",3,"Randomized","RANDOMIZED","PROTOCOL MILESTONE","3","BASELINE","2012-31-07",NA,NA
"CDISCPILOT01","DS","CDISCPILOT01-709-1020",1,"Completed","COMPLETED","DISPOSITION EVENT","13","WEEK 26","2013-01-06",2013-01-06,361
"CDISCPILOT01","DS","CDISCPILOT01-709-1020",2,"Final Lab Visit","FINAL LAB VISIT","OTHER EVENT","13","WEEK 26","2013-01-06T10:40",2013-01-06,361
"CDISCPILOT01","DS","CDISCPILOT01-709-1020",3,"Randomized","RANDOMIZED","PROTOCOL MILESTONE","3","BASELINE","2012-01-12",2012-01-12,1
"CDISCPILOT01","DS","CDISCPILOT01-709-1029",1,"Completed","COMPLETED","DISPOSITION EVENT","13","WEEK 26","2013-26-06",NA,NA
"CDISCPILOT01","DS","CDISCPILOT01-709-1029",2,"Final Lab Visit","FINAL LAB VISIT","OTHER EVENT","13","WEEK 26","2013-26-06T10:58",NA,NA
"CDISCPILOT01","DS","CDISCPILOT01-709-1029",3,"Randomized","RANDOMIZED","PROTOCOL MILESTONE","3","BASELINE","2012-25-12",NA,NA
"CDISCPILOT01","DS","CDISCPILOT01-709-1081",1,"Adverse Event","ADVERSE EVENT","DISPOSITION EVENT","10","WEEK 16","2014-10-05",2014-10-05,NA
"CDISCPILOT01","DS","CDISCPILOT01-709-1081",2,"Final Lab Visit","FINAL LAB VISIT","OTHER EVENT","10","WEEK 16","2014-10-05T11:15",2014-10-05,NA
"CDISCPILOT01","DS","CDISCPILOT01-709-1081",3,"Randomized","RANDOMIZED","PROTOCOL MILESTONE","3","BASELINE","2014-18-01",NA,NA
"CDISCPILOT01","DS","CDISCPILOT01-709-1088",1,"Completed","COMPLETED","DISPOSITION EVENT","13","WEEK 26","2014-09-10",2014-09-10,-85
"CDISCPILOT01","DS","CDISCPILOT01-709-1088",2,"Final Lab Visit","FINAL LAB VISIT","OTHER EVENT","13","WEEK 26","2014-09-10T13:25",2014-09-10,-85
"CDISCPILOT01","DS","CDISCPILOT01-709-1088",3,"Randomized","RANDOMIZED","PROTOCOL MILESTONE","3","BASELINE","2014-12-04",2014-12-04,1
"CDISCPILOT01","DS","CDISCPILOT01-709-1099",1,"Completed","COMPLETED","DISPOSITION EVENT","13","WEEK 26","2014-25-04",NA,NA
"CDISCPILOT01","DS","CDISCPILOT01-709-1099",2,"Final Lab Visit","FINAL LAB VISIT","OTHER EVENT","13","WEEK 26","2014-25-04T09:10",NA,NA
"CDISCPILOT01","DS","CDISCPILOT01-709-1099",3,"Randomized","RANDOMIZED","PROTOCOL MILESTONE","3","BASELINE","2013-25-10",NA,NA
"CDISCPILOT01","DS","CDISCPILOT01-709-1102",1,"Adverse Event","ADVERSE EVENT","DISPOSITION EVENT","9","WEEK 12","2013-31-03",NA,NA
"CDISCPILOT01","DS","CDISCPILOT01-709-1102",2,"Final Lab Visit","FINAL LAB VISIT","OTHER EVENT","9","WEEK 12","2013-31-03T12:15",NA,NA
"CDISCPILOT01","DS","CDISCPILOT01-709-1102",3,"Randomized","RANDOMIZED","PROTOCOL MILESTONE","3","BASELINE","2013-15-01",NA,NA
"CDISCPILOT01","DS","CDISCPILOT01-709-1168",1,"Adverse Event","ADVERSE EVENT","DISPOSITION EVENT","8","WEEK 8","2013-27-09",NA,NA
"CDISCPILOT01","DS","CDISCPILOT01-709-1168",2,"Final Lab Visit","FINAL LAB VISIT","OTHER EVENT","8","WEEK 8","2013-27-09T10:05",NA,NA
"CDISCPILOT01","DS","CDISCPILOT01-709-1168",3,"Randomized","RANDOMIZED","PROTOCOL MILESTONE","3","BASELINE","2013-02-08",2013-02-08,1
"CDISCPILOT01","DS","CDISCPILOT01-709-1217",1,"Adverse Event","ADVERSE EVENT","DISPOSITION EVENT","10","WEEK 16","2013-25-06",NA,NA
"CDISCPILOT01","DS","CDISCPILOT01-709-1217",2,"Final Lab Visit","FINAL LAB VISIT","OTHER EVENT","10","WEEK 16","2013-25-06T10:35",NA,NA
"CDISCPILOT01","DS","CDISCPILOT01-709-1217",3,"Randomized","RANDOMIZED","PROTOCOL MILESTONE","3","BASELINE","2013-04-03",2013-04-03,1
"CDISCPILOT01","DS","CDISCPILOT01-709-1224",1,"Screen Failure","SCREEN FAILURE","DISPOSITION EVENT","1","SCREENING 1","2013-18-11",NA,NA
"CDISCPILOT01","DS","CDISCPILOT01-709-1237",1,"Screen Failure","SCREEN FAILURE","DISPOSITION EVENT","1","SCREENING 1","2014-17-01",NA,NA
"CDISCPILOT01","DS","CDISCPILOT01-709-1238",1,"Adverse Event","ADVERSE EVENT","DISPOSITION EVENT","9","WEEK 12","2013-07-08",2013-07-08,NA
"CDISCPILOT01","DS","CDISCPILOT01-709-1238",2,"Final Lab Visit","FINAL LAB VISIT","OTHER EVENT","9","WEEK 12","2013-07-08T13:20",2013-07-08,NA
"CDISCPILOT01","DS","CDISCPILOT01-709-1238",3,"Randomized","RANDOMIZED","PROTOCOL MILESTONE","3","BASELINE","2013-15-05",NA,NA
"CDISCPILOT01","DS","CDISCPILOT01-709-1259",1,"Final Lab Visit","FINAL LAB VISIT","OTHER EVENT","11","WEEK 20","2013-13-06T12:23",NA,NA
"CDISCPILOT01","DS","CDISCPILOT01-709-1259",2,"Lack of Efficacy","LACK OF EFFICACY","DISPOSITION EVENT","11","WEEK 20","2013-13-06",NA,NA
"CDISCPILOT01","DS","CDISCPILOT01-709-1259",3,"Randomized","RANDOMIZED","PROTOCOL MILESTONE","3","BASELINE","2013-26-01",NA,NA
"CDISCPILOT01","DS","CDISCPILOT01-709-1285",1,"Final Lab Visit","FINAL LAB VISIT","OTHER EVENT","9","WEEK 12","2013-31-05T13:15",NA,NA
"CDISCPILOT01","DS","CDISCPILOT01-709-1285",2,"Randomized","RANDOMIZED","PROTOCOL MILESTONE","3","BASELINE","2013-24-03",NA,NA
"CDISCPILOT01","DS","CDISCPILOT01-709-1285",3,"Study Terminated by Sponsor","STUDY TERMINATED BY SPONSOR","DISPOSITION EVENT","9","WEEK 12","2013-31-05",NA,NA
"CDISCPILOT01","DS","CDISCPILOT01-709-1301",1,"Completed","COMPLETED","DISPOSITION EVENT","13","WEEK 26","2014-17-01",NA,NA
"CDISCPILOT01","DS","CDISCPILOT01-709-1301",2,"Final Lab Visit","FINAL LAB VISIT","OTHER EVENT","13","WEEK 26","2014-17-01T10:07",NA,NA
"CDISCPILOT01","DS","CDISCPILOT01-709-1301",3,"Randomized","RANDOMIZED","PROTOCOL MILESTONE","3","BASELINE","2013-19-07",NA,NA
"CDISCPILOT01","DS","CDISCPILOT01-709-1306",1,"Adverse Event","ADVERSE EVENT","DISPOSITION EVENT","11","WEEK 20","2014-25-06",NA,NA
"CDISCPILOT01","DS","CDISCPILOT01-709-1306",2,"Final Lab Visit","FINAL LAB VISIT","OTHER EVENT","11","WEEK 20","2014-25-06T10:45",NA,NA
"CDISCPILOT01","DS","CDISCPILOT01-709-1306",3,"Randomized","RANDOMIZED","PROTOCOL MILESTONE","3","BASELINE","2014-03-02",2014-03-02,1
"CDISCPILOT01","DS","CDISCPILOT01-709-1309",1,"Completed","COMPLETED","DISPOSITION EVENT","13","WEEK 26","2013-19-12",NA,NA
"CDISCPILOT01","DS","CDISCPILOT01-709-1309",2,"Final Lab Visit","FINAL LAB VISIT","OTHER EVENT","13","WEEK 26","2013-19-12T10:35",NA,NA
"CDISCPILOT01","DS","CDISCPILOT01-709-1309",3,"Randomized","RANDOMIZED","PROTOCOL MILESTONE","3","BASELINE","2013-19-06",NA,NA
"CDISCPILOT01","DS","CDISCPILOT01-709-1312",1,"Completed","COMPLETED","DISPOSITION EVENT","13","WEEK 26","2014-19-10",NA,NA
"CDISCPILOT01","DS","CDISCPILOT01-709-1312",2,"Final Lab Visit","FINAL LAB VISIT","OTHER EVENT","13","WEEK 26","2014-19-10T10:00",NA,NA
"CDISCPILOT01","DS","CDISCPILOT01-709-1312",3,"Randomized","RANDOMIZED","PROTOCOL MILESTONE","3","BASELINE","2014-20-04",NA,NA
"CDISCPILOT01","DS","CDISCPILOT01-709-1326",1,"Completed","COMPLETED","DISPOSITION EVENT","13","WEEK 26","2013-02-10",2013-02-10,-83
"CDISCPILOT01","DS","CDISCPILOT01-709-1326",2,"Final Lab Visit","FINAL LAB VISIT","OTHER EVENT","13","WEEK 26","2013-02-10T09:40",2013-02-10,-83
"CDISCPILOT01","DS","CDISCPILOT01-709-1326",3,"Randomized","RANDOMIZED","PROTOCOL MILESTONE","3","BASELINE","2013-05-04",2013-05-04,1
"CDISCPILOT01","DS","CDISCPILOT01-709-1329",1,"Final Lab Visit","FINAL LAB VISIT","OTHER EVENT","4","WEEK 2","2013-29-08T10:35",NA,NA
"CDISCPILOT01","DS","CDISCPILOT01-709-1329",2,"Randomized","RANDOMIZED","PROTOCOL MILESTONE","3","BASELINE","2013-15-08",NA,NA
"CDISCPILOT01","DS","CDISCPILOT01-709-1329",3,"Withdrawal by Subject","WITHDRAWAL BY SUBJECT","DISPOSITION EVENT","4","WEEK 2","2013-29-08",NA,NA
"CDISCPILOT01","DS","CDISCPILOT01-709-1339",1,"Completed","COMPLETED","DISPOSITION EVENT","13","WEEK 26","2013-24-06",NA,NA
"CDISCPILOT01","DS","CDISCPILOT01-709-1339",2,"Final Lab Visit","FINAL LAB VISIT","OTHER EVENT","13","WEEK 26","2013-24-06T10:10",NA,NA
"CDISCPILOT01","DS","CDISCPILOT01-709-1339",3,"Randomized","RANDOMIZED","PROTOCOL MILESTONE","3","BASELINE","2012-23-12",NA,NA
"CDISCPILOT01","DS","CDISCPILOT01-709-1424",1,"Adverse Event","ADVERSE EVENT","DISPOSITION EVENT","4","WEEK 2","2013-08-03",2013-08-03,154
"CDISCPILOT01","DS","CDISCPILOT01-709-1424",2,"Final Lab Visit","FINAL LAB VISIT","OTHER EVENT","UNSCHEDULED 4.1","UNSCHEDULED 4.1","2013-17-03",NA,NA
"CDISCPILOT01","DS","CDISCPILOT01-709-1424",3,"Randomized","RANDOMIZED","PROTOCOL MILESTONE","3","BASELINE","2013-03-03",2013-03-03,1
"CDISCPILOT01","DS","CDISCPILOT01-710-1002",1,"Adverse Event","ADVERSE EVENT","DISPOSITION EVENT","4","WEEK 2","2014-18-01",NA,NA
"CDISCPILOT01","DS","CDISCPILOT01-710-1002",2,"Final Lab Visit","FINAL LAB VISIT","OTHER EVENT","4","WEEK 2","2014-18-01T15:00",NA,NA
"CDISCPILOT01","DS","CDISCPILOT01-710-1002",3,"Randomized","RANDOMIZED","PROTOCOL MILESTONE","3","BASELINE","2014-14-01",NA,NA
"CDISCPILOT01","DS","CDISCPILOT01-710-1006",1,"Completed","COMPLETED","DISPOSITION EVENT","13","WEEK 26","2013-10-08",2013-10-08,7
"CDISCPILOT01","DS","CDISCPILOT01-710-1006",2,"Final Lab Visit","FINAL LAB VISIT","OTHER EVENT","13","WEEK 26","2013-10-08T10:10",2013-10-08,7
"CDISCPILOT01","DS","CDISCPILOT01-710-1006",3,"Randomized","RANDOMIZED","PROTOCOL MILESTONE","3","BASELINE","2013-10-02",2013-10-02,1
"CDISCPILOT01","DS","CDISCPILOT01-710-1021",1,"Adverse Event","ADVERSE EVENT","DISPOSITION EVENT","7","WEEK 6","2013-12-11",2013-12-11,NA
"CDISCPILOT01","DS","CDISCPILOT01-710-1021",2,"Final Lab Visit","FINAL LAB VISIT","OTHER EVENT","7","WEEK 6","2013-12-11T16:35",2013-12-11,NA
"CDISCPILOT01","DS","CDISCPILOT01-710-1021",3,"Randomized","RANDOMIZED","PROTOCOL MILESTONE","3","BASELINE","2013-27-09",NA,NA
"CDISCPILOT01","DS","CDISCPILOT01-710-1027",1,"Completed","COMPLETED","DISPOSITION EVENT","13","WEEK 26","2014-29-08",NA,NA
"CDISCPILOT01","DS","CDISCPILOT01-710-1027",2,"Final Lab Visit","FINAL LAB VISIT","OTHER EVENT","13","WEEK 26","2014-29-08T11:05",NA,NA
"CDISCPILOT01","DS","CDISCPILOT01-710-1027",3,"Randomized","RANDOMIZED","PROTOCOL MILESTONE","3","BASELINE","2014-28-02",NA,NA
"CDISCPILOT01","DS","CDISCPILOT01-710-1045",1,"Adverse Event","ADVERSE EVENT","DISPOSITION EVENT","9","WEEK 12","2013-17-08",NA,NA
"CDISCPILOT01","DS","CDISCPILOT01-710-1045",2,"Final Lab Visit","FINAL LAB VISIT","OTHER EVENT","9","WEEK 12","2013-17-08T12:30",NA,NA
"CDISCPILOT01","DS","CDISCPILOT01-710-1045",3,"Randomized","RANDOMIZED","PROTOCOL MILESTONE","3","BASELINE","2013-03-06",2013-03-06,1
"CDISCPILOT01","DS","CDISCPILOT01-710-1053",1,"Adverse Event","ADVERSE EVENT","DISPOSITION EVENT","8","WEEK 8","2013-15-02",NA,NA
"CDISCPILOT01","DS","CDISCPILOT01-710-1053",2,"Final Lab Visit","FINAL LAB VISIT","OTHER EVENT","UNSCHEDULED 8.2","UNSCHEDULED 8.2","2013-26-02T13:25",NA,NA
"CDISCPILOT01","DS","CDISCPILOT01-710-1053",3,"Randomized","RANDOMIZED","PROTOCOL MILESTONE","3","BASELINE","2012-26-12",NA,NA
"CDISCPILOT01","DS","CDISCPILOT01-710-1060",1,"Completed","COMPLETED","DISPOSITION EVENT","13","WEEK 26","2013-05-07",2013-05-07,127
"CDISCPILOT01","DS","CDISCPILOT01-710-1060",2,"Final Lab Visit","FINAL LAB VISIT","OTHER EVENT","13","WEEK 26","2013-05-07T14:40",2013-05-07,127
"CDISCPILOT01","DS","CDISCPILOT01-710-1060",3,"Randomized","RANDOMIZED","PROTOCOL MILESTONE","3","BASELINE","2013-01-01",2013-01-01,1
"CDISCPILOT01","DS","CDISCPILOT01-710-1070",1,"Adverse Event","ADVERSE EVENT","DISPOSITION EVENT","11","WEEK 20","2013-23-02",NA,NA
"CDISCPILOT01","DS","CDISCPILOT01-710-1070",2,"Final Lab Visit","FINAL LAB VISIT","OTHER EVENT","10","WEEK 16","2012-28-12T11:55",NA,NA
"CDISCPILOT01","DS","CDISCPILOT01-710-1070",3,"Randomized","RANDOMIZED","PROTOCOL MILESTONE","3","BASELINE","2012-08-09",2012-08-09,1
"CDISCPILOT01","DS","CDISCPILOT01-710-1077",1,"Completed","COMPLETED","DISPOSITION EVENT","13","WEEK 26","2014-18-05",NA,NA
"CDISCPILOT01","DS","CDISCPILOT01-710-1077",2,"Final Lab Visit","FINAL LAB VISIT","OTHER EVENT","13","WEEK 26","2014-18-05T09:50",NA,NA
"CDISCPILOT01","DS","CDISCPILOT01-710-1077",3,"Randomized","RANDOMIZED","PROTOCOL MILESTONE","3","BASELINE","2013-17-11",NA,NA
"CDISCPILOT01","DS","CDISCPILOT01-710-1078",1,"Completed","COMPLETED","DISPOSITION EVENT","13","WEEK 26","2014-23-03",NA,NA
"CDISCPILOT01","DS","CDISCPILOT01-710-1078",2,"Final Lab Visit","FINAL LAB VISIT","OTHER EVENT","13","WEEK 26","2014-23-03T16:00",NA,NA
"CDISCPILOT01","DS","CDISCPILOT01-710-1078",3,"Randomized","RANDOMIZED","PROTOCOL MILESTONE","3","BASELINE","2013-17-09",NA,NA
"CDISCPILOT01","DS","CDISCPILOT01-710-1083",1,"Death","DEATH","DISPOSITION EVENT","4","WEEK 2","2013-03-08",2013-02-08,NA
"CDISCPILOT01","DS","CDISCPILOT01-710-1083",2,"Final Lab Visit","FINAL LAB VISIT","OTHER EVENT","1","SCREENING 1","2013-09-07T16:35",2013-09-07,NA
"CDISCPILOT01","DS","CDISCPILOT01-710-1083",3,"Randomized","RANDOMIZED","PROTOCOL MILESTONE","3","BASELINE","2013-22-07",NA,NA
"CDISCPILOT01","DS","CDISCPILOT01-710-1129",1,"Screen Failure","SCREEN FAILURE","DISPOSITION EVENT","1","SCREENING 1","2013-05-03",2013-05-03,NA
"CDISCPILOT01","DS","CDISCPILOT01-710-1137",1,"Adverse Event","ADVERSE EVENT","DISPOSITION EVENT","7","WEEK 6","2013-13-11",NA,NA
"CDISCPILOT01","DS","CDISCPILOT01-710-1137",2,"Final Lab Visit","FINAL LAB VISIT","OTHER EVENT","7","WEEK 6","2013-13-11T11:30",NA,NA
"CDISCPILOT01","DS","CDISCPILOT01-710-1137",3,"Randomized","RANDOMIZED","PROTOCOL MILESTONE","3","BASELINE","2013-11-10",2013-11-10,1
"CDISCPILOT01","DS","CDISCPILOT01-710-1142",1,"Adverse Event","ADVERSE EVENT","DISPOSITION EVENT","5","WEEK 4","2012-23-10",NA,NA
"CDISCPILOT01","DS","CDISCPILOT01-710-1142",2,"Final Lab Visit","FINAL LAB VISIT","OTHER EVENT","5","WEEK 4","2012-23-10T15:20",NA,NA
"CDISCPILOT01","DS","CDISCPILOT01-710-1142",3,"Randomized","RANDOMIZED","PROTOCOL MILESTONE","3","BASELINE","2012-02-10",2012-02-10,1
"CDISCPILOT01","DS","CDISCPILOT01-710-1149",1,"Screen Failure","SCREEN FAILURE","DISPOSITION EVENT","1","SCREENING 1","2013-16-11",NA,NA
"CDISCPILOT01","DS","CDISCPILOT01-710-1154",1,"Adverse Event","ADVERSE EVENT","DISPOSITION EVENT","7","WEEK 6","2014-09-05",2014-09-05,NA
"CDISCPILOT01","DS","CDISCPILOT01-710-1154",2,"Final Lab Visit","FINAL LAB VISIT","OTHER EVENT","7","WEEK 6","2014-09-05T10:55",2014-09-05,NA
"CDISCPILOT01","DS","CDISCPILOT01-710-1154",3,"Randomized","RANDOMIZED","PROTOCOL MILESTONE","3","BASELINE","2014-29-03",NA,NA
"CDISCPILOT01","DS","CDISCPILOT01-710-1166",1,"Adverse Event","ADVERSE EVENT","DISPOSITION EVENT","10","WEEK 16","2013-30-03",NA,NA
"CDISCPILOT01","DS","CDISCPILOT01-710-1166",2,"Final Lab Visit","FINAL LAB VISIT","OTHER EVENT","10","WEEK 16","2013-30-03T09:35",NA,NA
"CDISCPILOT01","DS","CDISCPILOT01-710-1166",3,"Randomized","RANDOMIZED","PROTOCOL MILESTONE","3","BASELINE","2012-30-11",NA,NA
"CDISCPILOT01","DS","CDISCPILOT01-710-1183",1,"Completed","COMPLETED","DISPOSITION EVENT","13","WEEK 26","2014-17-05",NA,NA
"CDISCPILOT01","DS","CDISCPILOT01-710-1183",2,"Final Lab Visit","FINAL LAB VISIT","OTHER EVENT","13","WEEK 26","2014-17-05T11:55",NA,NA
"CDISCPILOT01","DS","CDISCPILOT01-710-1183",3,"Randomized","RANDOMIZED","PROTOCOL MILESTONE","3","BASELINE","2013-16-11",NA,NA
"CDISCPILOT01","DS","CDISCPILOT01-710-1187",1,"Completed","COMPLETED","DISPOSITION EVENT","13","WEEK 26","2013-12-05",2013-12-05,421
"CDISCPILOT01","DS","CDISCPILOT01-710-1187",2,"Final Lab Visit","FINAL LAB VISIT","OTHER EVENT","13","WEEK 26","2013-12-05T11:05",2013-12-05,421
"CDISCPILOT01","DS","CDISCPILOT01-710-1187",3,"Randomized","RANDOMIZED","PROTOCOL MILESTONE","3","BASELINE","2012-10-11",2012-10-11,1
"CDISCPILOT01","DS","CDISCPILOT01-710-1235",1,"Completed","COMPLETED","DISPOSITION EVENT","13","WEEK 26","2013-27-03",NA,NA
"CDISCPILOT01","DS","CDISCPILOT01-710-1235",2,"Final Lab Visit","FINAL LAB VISIT","OTHER EVENT","13","WEEK 26","2013-27-03T09:35",NA,NA
"CDISCPILOT01","DS","CDISCPILOT01-710-1235",3,"Randomized","RANDOMIZED","PROTOCOL MILESTONE","3","BASELINE","2012-26-09",NA,NA
"CDISCPILOT01","DS","CDISCPILOT01-710-1249",1,"Completed","COMPLETED","DISPOSITION EVENT","13","WEEK 26","2014-28-06",NA,NA
"CDISCPILOT01","DS","CDISCPILOT01-710-1249",2,"Final Lab Visit","FINAL LAB VISIT","OTHER EVENT","13","WEEK 26","2014-28-06T11:05",NA,NA
"CDISCPILOT01","DS","CDISCPILOT01-710-1249",3,"Randomized","RANDOMIZED","PROTOCOL MILESTONE","3","BASELINE","2013-28-12",NA,NA
"CDISCPILOT01","DS","CDISCPILOT01-710-1257",1,"Screen Failure","SCREEN FAILURE","DISPOSITION EVENT","1","SCREENING 1","2013-29-11",NA,NA
"CDISCPILOT01","DS","CDISCPILOT01-710-1264",1,"Adverse Event","ADVERSE EVENT","DISPOSITION EVENT","11","WEEK 20","2013-12-10",2013-12-10,NA
"CDISCPILOT01","DS","CDISCPILOT01-710-1264",2,"Final Lab Visit","FINAL LAB VISIT","OTHER EVENT","11","WEEK 20","2013-12-10T12:18",2013-12-10,NA
"CDISCPILOT01","DS","CDISCPILOT01-710-1264",3,"Randomized","RANDOMIZED","PROTOCOL MILESTONE","3","BASELINE","2013-13-06",NA,NA
"CDISCPILOT01","DS","CDISCPILOT01-710-1270",1,"Adverse Event","ADVERSE EVENT","DISPOSITION EVENT","4","WEEK 2","2014-01-03",2014-01-03,-333
"CDISCPILOT01","DS","CDISCPILOT01-710-1270",2,"Final Lab Visit","FINAL LAB VISIT","OTHER EVENT","4","WEEK 2","2014-01-03T12:05",2014-01-03,-333
"CDISCPILOT01","DS","CDISCPILOT01-710-1270",3,"Randomized","RANDOMIZED","PROTOCOL MILESTONE","3","BASELINE","2014-12-02",2014-12-02,1
"CDISCPILOT01","DS","CDISCPILOT01-710-1271",1,"Adverse Event","ADVERSE EVENT","DISPOSITION EVENT","8","WEEK 8","2012-02-12",2012-02-12,NA
"CDISCPILOT01","DS","CDISCPILOT01-710-1271",2,"Final Lab Visit","FINAL LAB VISIT","OTHER EVENT","7","WEEK 6","2012-08-11T16:30",2012-08-11,NA
"CDISCPILOT01","DS","CDISCPILOT01-710-1271",3,"Randomized","RANDOMIZED","PROTOCOL MILESTONE","3","BASELINE","2012-27-09",NA,NA
"CDISCPILOT01","DS","CDISCPILOT01-710-1278",1,"Adverse Event","ADVERSE EVENT","DISPOSITION EVENT","9","WEEK 12","2013-03-03",2013-03-03,NA
"CDISCPILOT01","DS","CDISCPILOT01-710-1278",2,"Final Lab Visit","FINAL LAB VISIT","OTHER EVENT","9","WEEK 12","2013-07-03T11:45",2013-07-03,NA
"CDISCPILOT01","DS","CDISCPILOT01-710-1278",3,"Randomized","RANDOMIZED","PROTOCOL MILESTONE","3","BASELINE","2012-24-12",NA,NA
"CDISCPILOT01","DS","CDISCPILOT01-710-1300",1,"Adverse Event","ADVERSE EVENT","DISPOSITION EVENT","9","WEEK 12","2013-19-02",NA,NA
"CDISCPILOT01","DS","CDISCPILOT01-710-1300",2,"Final Lab Visit","FINAL LAB VISIT","OTHER EVENT","9","WEEK 12","2013-19-02T15:50",NA,NA
"CDISCPILOT01","DS","CDISCPILOT01-710-1300",3,"Randomized","RANDOMIZED","PROTOCOL MILESTONE","3","BASELINE","2012-15-12",NA,NA
"CDISCPILOT01","DS","CDISCPILOT01-710-1314",1,"Final Lab Visit","FINAL LAB VISIT","OTHER EVENT","5","WEEK 4","2013-23-05T14:45",NA,NA
"CDISCPILOT01","DS","CDISCPILOT01-710-1314",2,"Randomized","RANDOMIZED","PROTOCOL MILESTONE","3","BASELINE","2013-24-04",NA,NA
"CDISCPILOT01","DS","CDISCPILOT01-710-1314",3,"Withdrawal by Subject","WITHDRAWAL BY SUBJECT","DISPOSITION EVENT","AMBUL ECG REMOVAL","AMBUL ECG REMOVAL","2013-25-05",NA,NA
"CDISCPILOT01","DS","CDISCPILOT01-710-1315",1,"Adverse Event","ADVERSE EVENT","DISPOSITION EVENT","11","WEEK 20","2013-16-07",NA,NA
"CDISCPILOT01","DS","CDISCPILOT01-710-1315",2,"Final Lab Visit","FINAL LAB VISIT","OTHER EVENT","11","WEEK 20","2013-16-07T12:05",NA,NA
"CDISCPILOT01","DS","CDISCPILOT01-710-1315",3,"Randomized","RANDOMIZED","PROTOCOL MILESTONE","3","BASELINE","2013-27-02",NA,NA
"CDISCPILOT01","DS","CDISCPILOT01-710-1337",1,"Screen Failure","SCREEN FAILURE","DISPOSITION EVENT","1","SCREENING 1","2013-30-12",NA,NA
"CDISCPILOT01","DS","CDISCPILOT01-710-1354",1,"Completed","COMPLETED","DISPOSITION EVENT","13","WEEK 26","2013-01-05",2013-01-05,56
"CDISCPILOT01","DS","CDISCPILOT01-710-1354",2,"Final Lab Visit","FINAL LAB VISIT","OTHER EVENT","13","WEEK 26","2013-01-05T14:05",2013-01-05,56
"CDISCPILOT01","DS","CDISCPILOT01-710-1354",3,"Randomized","RANDOMIZED","PROTOCOL MILESTONE","3","BASELINE","2012-11-11",2012-11-11,1
"CDISCPILOT01","DS","CDISCPILOT01-710-1358",1,"Final Lab Visit","FINAL LAB VISIT","OTHER EVENT","11","WEEK 20","2013-06-02T11:25",2013-06-02,NA
"CDISCPILOT01","DS","CDISCPILOT01-710-1358",2,"Randomized","RANDOMIZED","PROTOCOL MILESTONE","3","BASELINE","2012-17-09",NA,NA
"CDISCPILOT01","DS","CDISCPILOT01-710-1358",3,"Withdrawal by Subject","WITHDRAWAL BY SUBJECT","DISPOSITION EVENT","12","WEEK 24","2013-12-03",2013-12-03,NA
"CDISCPILOT01","DS","CDISCPILOT01-710-1368",1,"Completed","COMPLETED","DISPOSITION EVENT","13","WEEK 26","2014-24-04",NA,NA
"CDISCPILOT01","DS","CDISCPILOT01-710-1368",2,"Final Lab Visit","FINAL LAB VISIT","OTHER EVENT","13","WEEK 26","2014-24-04T10:10",NA,NA
"CDISCPILOT01","DS","CDISCPILOT01-710-1368",3,"Randomized","RANDOMIZED","PROTOCOL MILESTONE","3","BASELINE","2013-23-10",NA,NA
"CDISCPILOT01","DS","CDISCPILOT01-710-1376",1,"Screen Failure","SCREEN FAILURE","DISPOSITION EVENT","1","SCREENING 1","2014-21-04",NA,NA
"CDISCPILOT01","DS","CDISCPILOT01-710-1380",1,"Screen Failure","SCREEN FAILURE","DISPOSITION EVENT","1","SCREENING 1","2013-02-06",2013-02-06,NA
"CDISCPILOT01","DS","CDISCPILOT01-710-1385",1,"Adverse Event","ADVERSE EVENT","DISPOSITION EVENT","10","WEEK 16","2013-18-02",NA,NA
"CDISCPILOT01","DS","CDISCPILOT01-710-1385",2,"Final Lab Visit","FINAL LAB VISIT","OTHER EVENT","10","WEEK 16","2013-18-02T13:40",NA,NA
"CDISCPILOT01","DS","CDISCPILOT01-710-1385",3,"Randomized","RANDOMIZED","PROTOCOL MILESTONE","3","BASELINE","2012-29-10",NA,NA
"CDISCPILOT01","DS","CDISCPILOT01-710-1408",1,"Completed","COMPLETED","DISPOSITION EVENT","13","WEEK 26","2013-12-07",2013-12-07,221
"CDISCPILOT01","DS","CDISCPILOT01-710-1408",2,"Final Lab Visit","FINAL LAB VISIT","OTHER EVENT","13","WEEK 26","2013-12-07T14:35",2013-12-07,221
"CDISCPILOT01","DS","CDISCPILOT01-710-1408",3,"Randomized","RANDOMIZED","PROTOCOL MILESTONE","3","BASELINE","2013-05-01",2013-05-01,1
"CDISCPILOT01","DS","CDISCPILOT01-710-1443",1,"Screen Failure","SCREEN FAILURE","DISPOSITION EVENT","1","SCREENING 1","2013-13-12",NA,NA
"CDISCPILOT01","DS","CDISCPILOT01-711-1012",1,"Adverse Event","ADVERSE EVENT","DISPOSITION EVENT","5","WEEK 4","2013-02-05",2013-02-05,-27
"CDISCPILOT01","DS","CDISCPILOT01-711-1012",2,"Final Lab Visit","FINAL LAB VISIT","OTHER EVENT","5","WEEK 4","2013-02-05T09:40",2013-02-05,-27
"CDISCPILOT01","DS","CDISCPILOT01-711-1012",3,"Final Retrieval Visit","FINAL RETRIEVAL VISIT","OTHER EVENT","201","RETRIEVAL","2013-18-09",NA,NA
"CDISCPILOT01","DS","CDISCPILOT01-711-1012",4,"Randomized","RANDOMIZED","PROTOCOL MILESTONE","3","BASELINE","2013-03-04",2013-03-04,1
"CDISCPILOT01","DS","CDISCPILOT01-711-1022",1,"Screen Failure","SCREEN FAILURE","DISPOSITION EVENT","1","SCREENING 1","2014-17-03",NA,NA
"CDISCPILOT01","DS","CDISCPILOT01-711-1036",1,"Completed","COMPLETED","DISPOSITION EVENT","13","WEEK 26","2013-10-02",2013-10-02,NA
"CDISCPILOT01","DS","CDISCPILOT01-711-1036",2,"Final Lab Visit","FINAL LAB VISIT","OTHER EVENT","13","WEEK 26","2013-10-02T10:25",2013-10-02,NA
"CDISCPILOT01","DS","CDISCPILOT01-711-1036",3,"Randomized","RANDOMIZED","PROTOCOL MILESTONE","3","BASELINE","2012-29-07",NA,NA
"CDISCPILOT01","DS","CDISCPILOT01-711-1143",1,"Adverse Event","ADVERSE EVENT","DISPOSITION EVENT","9","WEEK 12","2013-01-06",2013-01-06,-57
"CDISCPILOT01","DS","CDISCPILOT01-711-1143",2,"Final Lab Visit","FINAL LAB VISIT","OTHER EVENT","9","WEEK 12","2013-01-06T13:11",2013-01-06,-57
"CDISCPILOT01","DS","CDISCPILOT01-711-1143",3,"Final Retrieval Visit","FINAL RETRIEVAL VISIT","OTHER EVENT","201","RETRIEVAL","2013-22-09",NA,NA
"CDISCPILOT01","DS","CDISCPILOT01-711-1143",4,"Randomized","RANDOMIZED","PROTOCOL MILESTONE","3","BASELINE","2013-03-04",2013-03-04,1
"CDISCPILOT01","DS","CDISCPILOT01-711-1163",1,"Screen Failure","SCREEN FAILURE","DISPOSITION EVENT","1","SCREENING 1","2012-08-11",2012-08-11,NA
"CDISCPILOT01","DS","CDISCPILOT01-711-1173",1,"Screen Failure","SCREEN FAILURE","DISPOSITION EVENT","1","SCREENING 1","2012-04-10",2012-04-10,NA
"CDISCPILOT01","DS","CDISCPILOT01-711-1226",1,"Screen Failure","SCREEN FAILURE","DISPOSITION EVENT","1","SCREENING 1","2013-24-10",NA,NA
"CDISCPILOT01","DS","CDISCPILOT01-711-1251",1,"Screen Failure","SCREEN FAILURE","DISPOSITION EVENT","1","SCREENING 1","2014-28-02",NA,NA
"CDISCPILOT01","DS","CDISCPILOT01-711-1283",1,"Screen Failure","SCREEN FAILURE","DISPOSITION EVENT","1","SCREENING 1","2014-27-03",NA,NA
"CDISCPILOT01","DS","CDISCPILOT01-711-1284",1,"Screen Failure","SCREEN FAILURE","DISPOSITION EVENT","1","SCREENING 1","2013-05-08",2013-05-08,NA
"CDISCPILOT01","DS","CDISCPILOT01-711-1290",1,"Screen Failure","SCREEN FAILURE","DISPOSITION EVENT","1","SCREENING 1","2013-20-12",NA,NA
"CDISCPILOT01","DS","CDISCPILOT01-711-1433",1,"Adverse Event","ADVERSE EVENT","DISPOSITION EVENT","4","WEEK 2","2013-06-02",2013-06-02,NA
"CDISCPILOT01","DS","CDISCPILOT01-711-1433",2,"Final Lab Visit","FINAL LAB VISIT","OTHER EVENT","4","WEEK 2","2013-06-02T10:52",2013-06-02,NA
"CDISCPILOT01","DS","CDISCPILOT01-711-1433",3,"Randomized","RANDOMIZED","PROTOCOL MILESTONE","3","BASELINE","2013-27-01",NA,NA
"CDISCPILOT01","DS","CDISCPILOT01-713-1043",1,"Completed","COMPLETED","DISPOSITION EVENT","13","WEEK 26","2014-24-03",NA,NA
"CDISCPILOT01","DS","CDISCPILOT01-713-1043",2,"Final Lab Visit","FINAL LAB VISIT","OTHER EVENT","13","WEEK 26","2014-24-03T14:30",NA,NA
"CDISCPILOT01","DS","CDISCPILOT01-713-1043",3,"Randomized","RANDOMIZED","PROTOCOL MILESTONE","3","BASELINE","2013-15-09",NA,NA
"CDISCPILOT01","DS","CDISCPILOT01-713-1073",1,"Completed","COMPLETED","DISPOSITION EVENT","13","WEEK 26","2014-05-10",2014-05-10,NA
"CDISCPILOT01","DS","CDISCPILOT01-713-1073",2,"Final Lab Visit","FINAL LAB VISIT","OTHER EVENT","13","WEEK 26","2014-05-10T10:30",2014-05-10,NA
"CDISCPILOT01","DS","CDISCPILOT01-713-1073",3,"Randomized","RANDOMIZED","PROTOCOL MILESTONE","3","BASELINE","2014-30-03",NA,NA
"CDISCPILOT01","DS","CDISCPILOT01-713-1106",1,"Completed","COMPLETED","DISPOSITION EVENT","13","WEEK 26","2013-06-05",2013-06-05,NA
"CDISCPILOT01","DS","CDISCPILOT01-713-1106",2,"Final Lab Visit","FINAL LAB VISIT","OTHER EVENT","13","WEEK 26","2013-06-05T11:25",2013-06-05,NA
"CDISCPILOT01","DS","CDISCPILOT01-713-1106",3,"Randomized","RANDOMIZED","PROTOCOL MILESTONE","3","BASELINE","2012-31-10",NA,NA
"CDISCPILOT01","DS","CDISCPILOT01-713-1141",1,"Adverse Event","ADVERSE EVENT","DISPOSITION EVENT","7","WEEK 6","2013-06-08",2013-06-08,NA
"CDISCPILOT01","DS","CDISCPILOT01-713-1141",2,"Final Lab Visit","FINAL LAB VISIT","OTHER EVENT","7","WEEK 6","2013-06-08T12:00",2013-06-08,NA
"CDISCPILOT01","DS","CDISCPILOT01-713-1141",3,"Randomized","RANDOMIZED","PROTOCOL MILESTONE","3","BASELINE","2013-31-05",NA,NA
"CDISCPILOT01","DS","CDISCPILOT01-713-1179",1,"Completed","COMPLETED","DISPOSITION EVENT","13","WEEK 26","2014-05-02",2014-05-02,237
"CDISCPILOT01","DS","CDISCPILOT01-713-1179",2,"Final Lab Visit","FINAL LAB VISIT","OTHER EVENT","13","WEEK 26","2014-05-02T15:15",2014-05-02,237
"CDISCPILOT01","DS","CDISCPILOT01-713-1179",3,"Randomized","RANDOMIZED","PROTOCOL MILESTONE","3","BASELINE","2013-09-08",2013-09-08,1
"CDISCPILOT01","DS","CDISCPILOT01-713-1209",1,"Completed","COMPLETED","DISPOSITION EVENT","13","WEEK 26","2013-22-11",NA,NA
"CDISCPILOT01","DS","CDISCPILOT01-713-1209",2,"Final Lab Visit","FINAL LAB VISIT","OTHER EVENT","13","WEEK 26","2013-22-11T10:05",NA,NA
"CDISCPILOT01","DS","CDISCPILOT01-713-1209",3,"Randomized","RANDOMIZED","PROTOCOL MILESTONE","3","BASELINE","2013-27-05",NA,NA
"CDISCPILOT01","DS","CDISCPILOT01-713-1256",1,"Completed","COMPLETED","DISPOSITION EVENT","13","WEEK 26","2013-25-03",NA,NA
"CDISCPILOT01","DS","CDISCPILOT01-713-1256",2,"Final Lab Visit","FINAL LAB VISIT","OTHER EVENT","13","WEEK 26","2013-25-03T10:30",NA,NA
"CDISCPILOT01","DS","CDISCPILOT01-713-1256",3,"Randomized","RANDOMIZED","PROTOCOL MILESTONE","3","BASELINE","2012-19-09",NA,NA
"CDISCPILOT01","DS","CDISCPILOT01-713-1269",1,"Completed","COMPLETED","DISPOSITION EVENT","13","WEEK 26","2014-28-07",NA,NA
"CDISCPILOT01","DS","CDISCPILOT01-713-1269",2,"Final Lab Visit","FINAL LAB VISIT","OTHER EVENT","13","WEEK 26","2014-28-07T14:00",NA,NA
"CDISCPILOT01","DS","CDISCPILOT01-713-1269",3,"Randomized","RANDOMIZED","PROTOCOL MILESTONE","3","BASELINE","2014-27-01",NA,NA
"CDISCPILOT01","DS","CDISCPILOT01-713-1448",1,"Adverse Event","ADVERSE EVENT","DISPOSITION EVENT","10","WEEK 16","2014-17-05",NA,NA
"CDISCPILOT01","DS","CDISCPILOT01-713-1448",2,"Final Lab Visit","FINAL LAB VISIT","OTHER EVENT","10","WEEK 16","2014-17-05T11:00",NA,NA
"CDISCPILOT01","DS","CDISCPILOT01-713-1448",3,"Final Retrieval Visit","FINAL RETRIEVAL VISIT","OTHER EVENT","201","RETRIEVAL","2014-27-07",NA,NA
"CDISCPILOT01","DS","CDISCPILOT01-713-1448",4,"Randomized","RANDOMIZED","PROTOCOL MILESTONE","3","BASELINE","2014-19-01",NA,NA
"CDISCPILOT01","DS","CDISCPILOT01-714-1035",1,"Completed","COMPLETED","DISPOSITION EVENT","13","WEEK 26","2014-16-10",NA,NA
"CDISCPILOT01","DS","CDISCPILOT01-714-1035",2,"Final Lab Visit","FINAL LAB VISIT","OTHER EVENT","13","WEEK 26","2014-16-10T12:00",NA,NA
"CDISCPILOT01","DS","CDISCPILOT01-714-1035",3,"Randomized","RANDOMIZED","PROTOCOL MILESTONE","3","BASELINE","2014-17-04",NA,NA
"CDISCPILOT01","DS","CDISCPILOT01-714-1068",1,"Adverse Event","ADVERSE EVENT","DISPOSITION EVENT","9","WEEK 12","2013-16-10",NA,NA
"CDISCPILOT01","DS","CDISCPILOT01-714-1068",2,"Final Lab Visit","FINAL LAB VISIT","OTHER EVENT","9","WEEK 12","2013-16-10T15:10",NA,NA
"CDISCPILOT01","DS","CDISCPILOT01-714-1068",3,"Randomized","RANDOMIZED","PROTOCOL MILESTONE","3","BASELINE","2013-08-08",2013-08-08,1
"CDISCPILOT01","DS","CDISCPILOT01-714-1195",1,"Completed","COMPLETED","DISPOSITION EVENT","13","WEEK 26","2013-23-10",NA,NA
"CDISCPILOT01","DS","CDISCPILOT01-714-1195",2,"Final Lab Visit","FINAL LAB VISIT","OTHER EVENT","13","WEEK 26","2013-23-10T10:55",NA,NA
"CDISCPILOT01","DS","CDISCPILOT01-714-1195",3,"Randomized","RANDOMIZED","PROTOCOL MILESTONE","3","BASELINE","2013-26-04",NA,NA
"CDISCPILOT01","DS","CDISCPILOT01-714-1288",1,"Completed","COMPLETED","DISPOSITION EVENT","13","WEEK 26","2014-17-06",NA,NA
"CDISCPILOT01","DS","CDISCPILOT01-714-1288",2,"Final Lab Visit","FINAL LAB VISIT","OTHER EVENT","13","WEEK 26","2014-17-06T13:00",NA,NA
"CDISCPILOT01","DS","CDISCPILOT01-714-1288",3,"Randomized","RANDOMIZED","PROTOCOL MILESTONE","3","BASELINE","2013-04-12",2013-04-12,1
"CDISCPILOT01","DS","CDISCPILOT01-714-1375",1,"Completed","COMPLETED","DISPOSITION EVENT","13","WEEK 26","2013-07-09",2013-07-09,NA
"CDISCPILOT01","DS","CDISCPILOT01-714-1375",2,"Final Lab Visit","FINAL LAB VISIT","OTHER EVENT","13","WEEK 26","2013-07-09T13:58",2013-07-09,NA
"CDISCPILOT01","DS","CDISCPILOT01-714-1375",3,"Randomized","RANDOMIZED","PROTOCOL MILESTONE","3","BASELINE","2013-26-02",NA,NA
"CDISCPILOT01","DS","CDISCPILOT01-714-1425",1,"Final Lab Visit","FINAL LAB VISIT","OTHER EVENT","4","WEEK 2","2013-22-08T14:55",NA,NA
"CDISCPILOT01","DS","CDISCPILOT01-714-1425",2,"Randomized","RANDOMIZED","PROTOCOL MILESTONE","3","BASELINE","2013-15-08",NA,NA
"CDISCPILOT01","DS","CDISCPILOT01-714-1425",3,"Study Terminated by Sponsor","STUDY TERMINATED BY SPONSOR","DISPOSITION EVENT","4","WEEK 2","2013-22-08",NA,NA
"CDISCPILOT01","DS","CDISCPILOT01-715-1085",1,"Completed","COMPLETED","DISPOSITION EVENT","13","WEEK 26","2013-18-08",NA,NA
"CDISCPILOT01","DS","CDISCPILOT01-715-1085",2,"Final Lab Visit","FINAL LAB VISIT","OTHER EVENT","13","WEEK 26","2013-18-08T10:22",NA,NA
"CDISCPILOT01","DS","CDISCPILOT01-715-1085",3,"Randomized","RANDOMIZED","PROTOCOL MILESTONE","3","BASELINE","2013-16-02",NA,NA
"CDISCPILOT01","DS","CDISCPILOT01-715-1107",1,"Adverse Event","ADVERSE EVENT","DISPOSITION EVENT","9","WEEK 12","2013-13-05",NA,NA
"CDISCPILOT01","DS","CDISCPILOT01-715-1107",2,"Final Lab Visit","FINAL LAB VISIT","OTHER EVENT","201","RETRIEVAL","2013-14-08T09:52",NA,NA
"CDISCPILOT01","DS","CDISCPILOT01-715-1107",3,"Final Retrieval Visit","FINAL RETRIEVAL VISIT","OTHER EVENT","201","RETRIEVAL","2013-14-08",NA,NA
"CDISCPILOT01","DS","CDISCPILOT01-715-1107",4,"Randomized","RANDOMIZED","PROTOCOL MILESTONE","3","BASELINE","2013-26-02",NA,NA
"CDISCPILOT01","DS","CDISCPILOT01-715-1134",1,"Screen Failure","SCREEN FAILURE","DISPOSITION EVENT","1","SCREENING 1","2014-17-04",NA,NA
"CDISCPILOT01","DS","CDISCPILOT01-715-1155",1,"Final Lab Visit","FINAL LAB VISIT","OTHER EVENT","5","WEEK 4","2014-10-01T08:45",2014-10-01,NA
"CDISCPILOT01","DS","CDISCPILOT01-715-1155",2,"Randomized","RANDOMIZED","PROTOCOL MILESTONE","3","BASELINE","2013-13-12",NA,NA
"CDISCPILOT01","DS","CDISCPILOT01-715-1155",3,"Withdrawal by Subject","WITHDRAWAL BY SUBJECT","DISPOSITION EVENT","7","WEEK 6","2014-26-04",NA,NA
"CDISCPILOT01","DS","CDISCPILOT01-715-1207",1,"Completed","COMPLETED","DISPOSITION EVENT","13","WEEK 26","2013-01-06",2013-01-06,NA
"CDISCPILOT01","DS","CDISCPILOT01-715-1207",2,"Final Lab Visit","FINAL LAB VISIT","OTHER EVENT","13","WEEK 26","2013-01-06T09:30",2013-01-06,NA
"CDISCPILOT01","DS","CDISCPILOT01-715-1207",3,"Randomized","RANDOMIZED","PROTOCOL MILESTONE","3","BASELINE","2012-18-11",NA,NA
"CDISCPILOT01","DS","CDISCPILOT01-715-1225",1,"Screen Failure","SCREEN FAILURE","DISPOSITION EVENT","1","SCREENING 1","2013-22-01",NA,NA
"CDISCPILOT01","DS","CDISCPILOT01-715-1319",1,"Final Lab Visit","FINAL LAB VISIT","OTHER EVENT","5","WEEK 4","2013-18-03T10:28",NA,NA
"CDISCPILOT01","DS","CDISCPILOT01-715-1319",2,"Randomized","RANDOMIZED","PROTOCOL MILESTONE","3","BASELINE","2013-17-02",NA,NA
"CDISCPILOT01","DS","CDISCPILOT01-715-1319",3,"Withdrawal by Subject","WITHDRAWAL BY SUBJECT","DISPOSITION EVENT","5","WEEK 4","2013-18-03",NA,NA
"CDISCPILOT01","DS","CDISCPILOT01-715-1321",1,"Adverse Event","ADVERSE EVENT","DISPOSITION EVENT","9","WEEK 12","2014-22-04",NA,NA
"CDISCPILOT01","DS","CDISCPILOT01-715-1321",2,"Final Lab Visit","FINAL LAB VISIT","OTHER EVENT","9","WEEK 12","2014-22-04T11:12",NA,NA
"CDISCPILOT01","DS","CDISCPILOT01-715-1321",3,"Randomized","RANDOMIZED","PROTOCOL MILESTONE","3","BASELINE","2014-11-02",2014-11-02,1
"CDISCPILOT01","DS","CDISCPILOT01-715-1333",1,"Screen Failure","SCREEN FAILURE","DISPOSITION EVENT","1","SCREENING 1","2013-03-06",2013-03-06,NA
"CDISCPILOT01","DS","CDISCPILOT01-715-1397",1,"Completed","COMPLETED","DISPOSITION EVENT","13","WEEK 26","2013-03-10",2013-03-10,7
"CDISCPILOT01","DS","CDISCPILOT01-715-1397",2,"Final Lab Visit","FINAL LAB VISIT","OTHER EVENT","13","WEEK 26","2013-03-10T10:50",2013-03-10,7
"CDISCPILOT01","DS","CDISCPILOT01-715-1397",3,"Randomized","RANDOMIZED","PROTOCOL MILESTONE","3","BASELINE","2013-03-04",2013-03-04,1
"CDISCPILOT01","DS","CDISCPILOT01-715-1405",1,"Adverse Event","ADVERSE EVENT","DISPOSITION EVENT","4","WEEK 2","2013-13-07",NA,NA
"CDISCPILOT01","DS","CDISCPILOT01-715-1405",2,"Final Lab Visit","FINAL LAB VISIT","OTHER EVENT","4","WEEK 2","2013-13-07T11:05",NA,NA
"CDISCPILOT01","DS","CDISCPILOT01-715-1405",3,"Final Retrieval Visit","FINAL RETRIEVAL VISIT","OTHER EVENT","201","RETRIEVAL","2014-11-01",2014-11-01,513
"CDISCPILOT01","DS","CDISCPILOT01-715-1405",4,"Randomized","RANDOMIZED","PROTOCOL MILESTONE","3","BASELINE","2013-06-07",2013-06-07,1
"CDISCPILOT01","DS","CDISCPILOT01-715-1407",1,"Screen Failure","SCREEN FAILURE","DISPOSITION EVENT","1","SCREENING 1","2012-24-10",NA,NA
"CDISCPILOT01","DS","CDISCPILOT01-716-1003",1,"Screen Failure","SCREEN FAILURE","DISPOSITION EVENT","1","SCREENING 1","2014-29-03",NA,NA
"CDISCPILOT01","DS","CDISCPILOT01-716-1024",1,"Completed","COMPLETED","DISPOSITION EVENT","13","WEEK 26","2013-20-01",NA,NA
"CDISCPILOT01","DS","CDISCPILOT01-716-1024",2,"Final Lab Visit","FINAL LAB VISIT","OTHER EVENT","13","WEEK 26","2013-20-01T11:10",NA,NA
"CDISCPILOT01","DS","CDISCPILOT01-716-1024",3,"Randomized","RANDOMIZED","PROTOCOL MILESTONE","3","BASELINE","2012-09-07",2012-09-07,1
"CDISCPILOT01","DS","CDISCPILOT01-716-1026",1,"Completed","COMPLETED","DISPOSITION EVENT","13","WEEK 26","2014-16-10",NA,NA
"CDISCPILOT01","DS","CDISCPILOT01-716-1026",2,"Final Lab Visit","FINAL LAB VISIT","OTHER EVENT","13","WEEK 26","2014-16-10T13:35",NA,NA
"CDISCPILOT01","DS","CDISCPILOT01-716-1026",3,"Randomized","RANDOMIZED","PROTOCOL MILESTONE","3","BASELINE","2014-02-04",2014-02-04,1
"CDISCPILOT01","DS","CDISCPILOT01-716-1030",1,"Final Lab Visit","FINAL LAB VISIT","OTHER EVENT","4","WEEK 2","2014-10-01T12:30",2014-10-01,NA
"CDISCPILOT01","DS","CDISCPILOT01-716-1030",2,"Randomized","RANDOMIZED","PROTOCOL MILESTONE","3","BASELINE","2013-28-12",NA,NA
"CDISCPILOT01","DS","CDISCPILOT01-716-1030",3,"Withdrawal by Subject","WITHDRAWAL BY SUBJECT","DISPOSITION EVENT","4","WEEK 2","2014-10-01",2014-10-01,NA
"CDISCPILOT01","DS","CDISCPILOT01-716-1044",1,"Completed","COMPLETED","DISPOSITION EVENT","13","WEEK 26","2013-03-11",2013-03-11,NA
"CDISCPILOT01","DS","CDISCPILOT01-716-1044",2,"Final Lab Visit","FINAL LAB VISIT","OTHER EVENT","13","WEEK 26","2013-03-11T13:10",2013-03-11,NA
"CDISCPILOT01","DS","CDISCPILOT01-716-1044",3,"Randomized","RANDOMIZED","PROTOCOL MILESTONE","3","BASELINE","2013-27-04",NA,NA
"CDISCPILOT01","DS","CDISCPILOT01-716-1061",1,"Screen Failure","SCREEN FAILURE","DISPOSITION EVENT","1","SCREENING 1","2014-14-02",NA,NA
"CDISCPILOT01","DS","CDISCPILOT01-716-1063",1,"Adverse Event","ADVERSE EVENT","DISPOSITION EVENT","10","WEEK 16","2013-28-08",NA,NA
"CDISCPILOT01","DS","CDISCPILOT01-716-1063",2,"Final Lab Visit","FINAL LAB VISIT","OTHER EVENT","10","WEEK 16","2013-28-08T15:20",NA,NA
"CDISCPILOT01","DS","CDISCPILOT01-716-1063",3,"Final Retrieval Visit","FINAL RETRIEVAL VISIT","OTHER EVENT","201","RETRIEVAL","2013-17-11",NA,NA
"CDISCPILOT01","DS","CDISCPILOT01-716-1063",4,"Randomized","RANDOMIZED","PROTOCOL MILESTONE","3","BASELINE","2013-09-05",2013-09-05,1
"CDISCPILOT01","DS","CDISCPILOT01-716-1071",1,"Adverse Event","ADVERSE EVENT","DISPOSITION EVENT","8","WEEK 8","2013-01-08",2013-01-08,-210
"CDISCPILOT01","DS","CDISCPILOT01-716-1071",2,"Final Lab Visit","FINAL LAB VISIT","OTHER EVENT","8","WEEK 8","2013-01-08T09:30",2013-01-08,-210
"CDISCPILOT01","DS","CDISCPILOT01-716-1071",3,"Final Retrieval Visit","FINAL RETRIEVAL VISIT","OTHER EVENT","201","RETRIEVAL","2013-16-12",NA,NA
"CDISCPILOT01","DS","CDISCPILOT01-716-1071",4,"Randomized","RANDOMIZED","PROTOCOL MILESTONE","3","BASELINE","2013-08-06",2013-08-06,1
"CDISCPILOT01","DS","CDISCPILOT01-716-1094",1,"Adverse Event","ADVERSE EVENT","DISPOSITION EVENT","7","WEEK 6","2013-26-01",NA,NA
"CDISCPILOT01","DS","CDISCPILOT01-716-1094",2,"Final Lab Visit","FINAL LAB VISIT","OTHER EVENT","7","WEEK 6","2013-26-01T11:20",NA,NA
"CDISCPILOT01","DS","CDISCPILOT01-716-1094",3,"Final Retrieval Visit","FINAL RETRIEVAL VISIT","OTHER EVENT","201","RETRIEVAL","2013-22-06",NA,NA
"CDISCPILOT01","DS","CDISCPILOT01-716-1094",4,"Randomized","RANDOMIZED","PROTOCOL MILESTONE","3","BASELINE","2012-19-12",NA,NA
"CDISCPILOT01","DS","CDISCPILOT01-716-1103",1,"Completed","COMPLETED","DISPOSITION EVENT","13","WEEK 26","2014-20-09",NA,NA
"CDISCPILOT01","DS","CDISCPILOT01-716-1103",2,"Final Lab Visit","FINAL LAB VISIT","OTHER EVENT","13","WEEK 26","2014-20-09T12:10",NA,NA
"CDISCPILOT01","DS","CDISCPILOT01-716-1103",3,"Randomized","RANDOMIZED","PROTOCOL MILESTONE","3","BASELINE","2014-20-03",NA,NA
"CDISCPILOT01","DS","CDISCPILOT01-716-1108",1,"Completed","COMPLETED","DISPOSITION EVENT","13","WEEK 26","2013-10-08",2013-10-08,-55
"CDISCPILOT01","DS","CDISCPILOT01-716-1108",2,"Final Lab Visit","FINAL LAB VISIT","OTHER EVENT","13","WEEK 26","2013-10-08T09:55",2013-10-08,-55
"CDISCPILOT01","DS","CDISCPILOT01-716-1108",3,"Randomized","RANDOMIZED","PROTOCOL MILESTONE","3","BASELINE","2013-12-02",2013-12-02,1
"CDISCPILOT01","DS","CDISCPILOT01-716-1151",1,"Adverse Event","ADVERSE EVENT","DISPOSITION EVENT","10","WEEK 16","2013-07-06",2013-07-06,186
"CDISCPILOT01","DS","CDISCPILOT01-716-1151",2,"Final Lab Visit","FINAL LAB VISIT","OTHER EVENT","10","WEEK 16","2013-07-06T11:55",2013-07-06,186
"CDISCPILOT01","DS","CDISCPILOT01-716-1151",3,"Final Retrieval Visit","FINAL RETRIEVAL VISIT","OTHER EVENT","201","RETRIEVAL","2013-13-08",NA,NA
"CDISCPILOT01","DS","CDISCPILOT01-716-1151",4,"Randomized","RANDOMIZED","PROTOCOL MILESTONE","3","BASELINE","2013-01-02",2013-01-02,1
"CDISCPILOT01","DS","CDISCPILOT01-716-1157",1,"Completed","COMPLETED","DISPOSITION EVENT","13","WEEK 26","2014-05-04",2014-05-04,449
"CDISCPILOT01","DS","CDISCPILOT01-716-1157",2,"Final Lab Visit","FINAL LAB VISIT","OTHER EVENT","13","WEEK 26","2014-05-04T11:10",2014-05-04,449
"CDISCPILOT01","DS","CDISCPILOT01-716-1157",3,"Randomized","RANDOMIZED","PROTOCOL MILESTONE","3","BASELINE","2013-02-10",2013-02-10,1
"CDISCPILOT01","DS","CDISCPILOT01-716-1160",1,"Completed","COMPLETED","DISPOSITION EVENT","13","WEEK 26","2013-11-10",2013-11-10,191
"CDISCPILOT01","DS","CDISCPILOT01-716-1160",2,"Final Lab Visit","FINAL LAB VISIT","OTHER EVENT","13","WEEK 26","2013-11-10T13:30",2013-11-10,191
"CDISCPILOT01","DS","CDISCPILOT01-716-1160",3,"Randomized","RANDOMIZED","PROTOCOL MILESTONE","3","BASELINE","2013-05-04",2013-05-04,1
"CDISCPILOT01","DS","CDISCPILOT01-716-1167",1,"Completed","COMPLETED","DISPOSITION EVENT","13","WEEK 26","2013-13-04",NA,NA
"CDISCPILOT01","DS","CDISCPILOT01-716-1167",2,"Final Lab Visit","FINAL LAB VISIT","OTHER EVENT","13","WEEK 26","2013-13-04T11:10",NA,NA
"CDISCPILOT01","DS","CDISCPILOT01-716-1167",3,"Randomized","RANDOMIZED","PROTOCOL MILESTONE","3","BASELINE","2012-08-10",2012-08-10,1
"CDISCPILOT01","DS","CDISCPILOT01-716-1177",1,"Completed","COMPLETED","DISPOSITION EVENT","13","WEEK 26","2015-05-03",2015-05-03,449
"CDISCPILOT01","DS","CDISCPILOT01-716-1177",2,"Final Lab Visit","FINAL LAB VISIT","OTHER EVENT","13","WEEK 26","2015-05-03T14:40",2015-05-03,449
"CDISCPILOT01","DS","CDISCPILOT01-716-1177",3,"Randomized","RANDOMIZED","PROTOCOL MILESTONE","3","BASELINE","2014-02-09",2014-02-09,1
"CDISCPILOT01","DS","CDISCPILOT01-716-1189",1,"Adverse Event","ADVERSE EVENT","DISPOSITION EVENT","11","WEEK 20","2013-03-03",2013-03-03,175
"CDISCPILOT01","DS","CDISCPILOT01-716-1189",2,"Final Lab Visit","FINAL LAB VISIT","OTHER EVENT","11","WEEK 20","2013-03-03T10:45",2013-03-03,175
"CDISCPILOT01","DS","CDISCPILOT01-716-1189",3,"Final Retrieval Visit","FINAL RETRIEVAL VISIT","OTHER EVENT","201","RETRIEVAL","2013-08-04",2013-08-04,329
"CDISCPILOT01","DS","CDISCPILOT01-716-1189",4,"Randomized","RANDOMIZED","PROTOCOL MILESTONE","3","BASELINE","2012-09-10",2012-09-10,1
"CDISCPILOT01","DS","CDISCPILOT01-716-1229",1,"Adverse Event","ADVERSE EVENT","DISPOSITION EVENT","7","WEEK 6","2013-02-04",2013-02-04,NA
"CDISCPILOT01","DS","CDISCPILOT01-716-1229",2,"Final Lab Visit","FINAL LAB VISIT","OTHER EVENT","7","WEEK 6","2013-02-04T11:15",2013-02-04,NA
"CDISCPILOT01","DS","CDISCPILOT01-716-1229",3,"Randomized","RANDOMIZED","PROTOCOL MILESTONE","3","BASELINE","2013-20-02",NA,NA
"CDISCPILOT01","DS","CDISCPILOT01-716-1244",1,"Screen Failure","SCREEN FAILURE","DISPOSITION EVENT","1","SCREENING 1","2013-15-08",NA,NA
"CDISCPILOT01","DS","CDISCPILOT01-716-1298",1,"Adverse Event","ADVERSE EVENT","DISPOSITION EVENT","9","WEEK 12","2013-06-07",2013-06-07,-58
"CDISCPILOT01","DS","CDISCPILOT01-716-1298",2,"Final Lab Visit","FINAL LAB VISIT","OTHER EVENT","9","WEEK 12","2013-06-07T10:30",2013-06-07,-58
"CDISCPILOT01","DS","CDISCPILOT01-716-1298",3,"Final Retrieval Visit","FINAL RETRIEVAL VISIT","OTHER EVENT","201","RETRIEVAL","2013-07-10",2013-07-10,-25
"CDISCPILOT01","DS","CDISCPILOT01-716-1298",4,"Randomized","RANDOMIZED","PROTOCOL MILESTONE","3","BASELINE","2013-08-04",2013-08-04,1
"CDISCPILOT01","DS","CDISCPILOT01-716-1305",1,"Screen Failure","SCREEN FAILURE","DISPOSITION EVENT","1","SCREENING 1","2013-06-08",2013-06-08,NA
"CDISCPILOT01","DS","CDISCPILOT01-716-1308",1,"Final Lab Visit","FINAL LAB VISIT","OTHER EVENT","7","WEEK 6","2013-07-10T15:50",2013-07-10,NA
"CDISCPILOT01","DS","CDISCPILOT01-716-1308",2,"Randomized","RANDOMIZED","PROTOCOL MILESTONE","3","BASELINE","2013-28-08",NA,NA
"CDISCPILOT01","DS","CDISCPILOT01-716-1308",3,"Withdrawal by Subject","WITHDRAWAL BY SUBJECT","DISPOSITION EVENT","7","WEEK 6","2013-07-10",2013-07-10,NA
"CDISCPILOT01","DS","CDISCPILOT01-716-1311",1,"Final Lab Visit","FINAL LAB VISIT","OTHER EVENT","11","WEEK 20","2014-30-09T09:00",NA,NA
"CDISCPILOT01","DS","CDISCPILOT01-716-1311",2,"Final Retrieval Visit","FINAL RETRIEVAL VISIT","OTHER EVENT","201","RETRIEVAL","2014-15-11",NA,NA
"CDISCPILOT01","DS","CDISCPILOT01-716-1311",3,"Randomized","RANDOMIZED","PROTOCOL MILESTONE","3","BASELINE","2014-14-05",NA,NA
"CDISCPILOT01","DS","CDISCPILOT01-716-1311",4,"Withdrawal by Subject","WITHDRAWAL BY SUBJECT","DISPOSITION EVENT","11","WEEK 20","2014-30-09",NA,NA
"CDISCPILOT01","DS","CDISCPILOT01-716-1331",1,"Screen Failure","SCREEN FAILURE","DISPOSITION EVENT","1","SCREENING 1","2013-25-11",NA,NA
"CDISCPILOT01","DS","CDISCPILOT01-716-1364",1,"Completed","COMPLETED","DISPOSITION EVENT","13","WEEK 26","2014-09-01",2014-09-01,513
"CDISCPILOT01","DS","CDISCPILOT01-716-1364",2,"Final Lab Visit","FINAL LAB VISIT","OTHER EVENT","13","WEEK 26","2014-09-01T15:30",2014-09-01,513
"CDISCPILOT01","DS","CDISCPILOT01-716-1364",3,"Randomized","RANDOMIZED","PROTOCOL MILESTONE","3","BASELINE","2013-04-07",2013-04-07,1
"CDISCPILOT01","DS","CDISCPILOT01-716-1373",1,"Adverse Event","ADVERSE EVENT","DISPOSITION EVENT","9","WEEK 12","2013-28-02",NA,NA
"CDISCPILOT01","DS","CDISCPILOT01-716-1373",2,"Final Lab Visit","FINAL LAB VISIT","OTHER EVENT","9","WEEK 12","2013-28-02T10:23",NA,NA
"CDISCPILOT01","DS","CDISCPILOT01-716-1373",3,"Randomized","RANDOMIZED","PROTOCOL MILESTONE","3","BASELINE","2012-14-12",NA,NA
"CDISCPILOT01","DS","CDISCPILOT01-716-1418",1,"Completed","COMPLETED","DISPOSITION EVENT","13","WEEK 26","2013-20-11",NA,NA
"CDISCPILOT01","DS","CDISCPILOT01-716-1418",2,"Final Lab Visit","FINAL LAB VISIT","OTHER EVENT","13","WEEK 26","2013-20-11T11:44",NA,NA
"CDISCPILOT01","DS","CDISCPILOT01-716-1418",3,"Randomized","RANDOMIZED","PROTOCOL MILESTONE","3","BASELINE","2013-05-05",2013-05-05,1
"CDISCPILOT01","DS","CDISCPILOT01-716-1441",1,"Completed","COMPLETED","DISPOSITION EVENT","13","WEEK 26","2014-22-07",NA,NA
"CDISCPILOT01","DS","CDISCPILOT01-716-1441",2,"Final Lab Visit","FINAL LAB VISIT","OTHER EVENT","13","WEEK 26","2014-22-07T10:00",NA,NA
"CDISCPILOT01","DS","CDISCPILOT01-716-1441",3,"Randomized","RANDOMIZED","PROTOCOL MILESTONE","3","BASELINE","2014-22-01",NA,NA
"CDISCPILOT01","DS","CDISCPILOT01-716-1447",1,"Completed","COMPLETED","DISPOSITION EVENT","13","WEEK 26","2014-17-06",NA,NA
"CDISCPILOT01","DS","CDISCPILOT01-716-1447",2,"Final Lab Visit","FINAL LAB VISIT","OTHER EVENT","13","WEEK 26","2014-17-06T12:00",NA,NA
"CDISCPILOT01","DS","CDISCPILOT01-716-1447",3,"Randomized","RANDOMIZED","PROTOCOL MILESTONE","3","BASELINE","2013-16-12",NA,NA
"CDISCPILOT01","DS","CDISCPILOT01-717-1004",1,"Completed","COMPLETED","DISPOSITION EVENT","13","WEEK 26","2014-16-07",NA,NA
"CDISCPILOT01","DS","CDISCPILOT01-717-1004",2,"Final Lab Visit","FINAL LAB VISIT","OTHER EVENT","13","WEEK 26","2014-16-07T13:21",NA,NA
"CDISCPILOT01","DS","CDISCPILOT01-717-1004",3,"Randomized","RANDOMIZED","PROTOCOL MILESTONE","3","BASELINE","2014-14-01",NA,NA
"CDISCPILOT01","DS","CDISCPILOT01-717-1109",1,"Completed","COMPLETED","DISPOSITION EVENT","13","WEEK 26","2014-28-07",NA,NA
"CDISCPILOT01","DS","CDISCPILOT01-717-1109",2,"Final Lab Visit","FINAL LAB VISIT","OTHER EVENT","13","WEEK 26","2014-28-07T10:53",NA,NA
"CDISCPILOT01","DS","CDISCPILOT01-717-1109",3,"Randomized","RANDOMIZED","PROTOCOL MILESTONE","3","BASELINE","2014-27-01",NA,NA
"CDISCPILOT01","DS","CDISCPILOT01-717-1174",1,"Completed","COMPLETED","DISPOSITION EVENT","13","WEEK 26","2013-24-07",NA,NA
"CDISCPILOT01","DS","CDISCPILOT01-717-1174",2,"Final Lab Visit","FINAL LAB VISIT","OTHER EVENT","13","WEEK 26","2013-24-07T15:15",NA,NA
"CDISCPILOT01","DS","CDISCPILOT01-717-1174",3,"Randomized","RANDOMIZED","PROTOCOL MILESTONE","3","BASELINE","2013-22-01",NA,NA
"CDISCPILOT01","DS","CDISCPILOT01-717-1201",1,"Final Lab Visit","FINAL LAB VISIT","OTHER EVENT","8","WEEK 8","2014-21-02T11:14",NA,NA
"CDISCPILOT01","DS","CDISCPILOT01-717-1201",2,"Lack of Efficacy","LACK OF EFFICACY","DISPOSITION EVENT","8","WEEK 8","2014-21-02",NA,NA
"CDISCPILOT01","DS","CDISCPILOT01-717-1201",3,"Randomized","RANDOMIZED","PROTOCOL MILESTONE","3","BASELINE","2013-19-12",NA,NA
"CDISCPILOT01","DS","CDISCPILOT01-717-1344",1,"Final Lab Visit","FINAL LAB VISIT","OTHER EVENT","8","WEEK 8","2014-14-03T14:14",NA,NA
"CDISCPILOT01","DS","CDISCPILOT01-717-1344",2,"Lack of Efficacy","LACK OF EFFICACY","DISPOSITION EVENT","8","WEEK 8","2014-14-03",NA,NA
"CDISCPILOT01","DS","CDISCPILOT01-717-1344",3,"Randomized","RANDOMIZED","PROTOCOL MILESTONE","3","BASELINE","2014-11-01",2014-11-01,1
"CDISCPILOT01","DS","CDISCPILOT01-717-1357",1,"Final Lab Visit","FINAL LAB VISIT","OTHER EVENT","12","WEEK 24","2013-20-10T10:52",NA,NA
"CDISCPILOT01","DS","CDISCPILOT01-717-1357",2,"Randomized","RANDOMIZED","PROTOCOL MILESTONE","3","BASELINE","2013-01-05",2013-01-05,1
"CDISCPILOT01","DS","CDISCPILOT01-717-1357",3,"Study Terminated by Sponsor","STUDY TERMINATED BY SPONSOR","DISPOSITION EVENT","12","WEEK 24","2013-20-10",NA,NA
"CDISCPILOT01","DS","CDISCPILOT01-717-1446",1,"Completed","COMPLETED","DISPOSITION EVENT","13","WEEK 26","2014-04-03",2014-04-03,450
"CDISCPILOT01","DS","CDISCPILOT01-717-1446",2,"Final Lab Visit","FINAL LAB VISIT","OTHER EVENT","UNSCHEDULED 13.1","UNSCHEDULED 13.1","2014-17-03T09:52",NA,NA
"CDISCPILOT01","DS","CDISCPILOT01-717-1446",3,"Randomized","RANDOMIZED","PROTOCOL MILESTONE","3","BASELINE","2013-01-09",2013-01-09,1
"CDISCPILOT01","DS","CDISCPILOT01-718-1066",1,"Adverse Event","ADVERSE EVENT","DISPOSITION EVENT","4","WEEK 2","2013-30-07",NA,NA
"CDISCPILOT01","DS","CDISCPILOT01-718-1066",2,"Final Lab Visit","FINAL LAB VISIT","OTHER EVENT","4","WEEK 2","2013-30-07T13:30",NA,NA
"CDISCPILOT01","DS","CDISCPILOT01-718-1066",3,"Randomized","RANDOMIZED","PROTOCOL MILESTONE","3","BASELINE","2013-07-07",2013-07-07,1
"CDISCPILOT01","DS","CDISCPILOT01-718-1079",1,"Adverse Event","ADVERSE EVENT","DISPOSITION EVENT","7","WEEK 6","2012-06-11",2012-06-11,NA
"CDISCPILOT01","DS","CDISCPILOT01-718-1079",2,"Final Lab Visit","FINAL LAB VISIT","OTHER EVENT","7","WEEK 6","2012-31-10T16:30",NA,NA
"CDISCPILOT01","DS","CDISCPILOT01-718-1079",3,"Final Retrieval Visit","FINAL RETRIEVAL VISIT","OTHER EVENT","201","RETRIEVAL","2013-05-03",2013-05-03,NA
"CDISCPILOT01","DS","CDISCPILOT01-718-1079",4,"Randomized","RANDOMIZED","PROTOCOL MILESTONE","3","BASELINE","2012-19-09",NA,NA
"CDISCPILOT01","DS","CDISCPILOT01-718-1101",1,"Final Lab Visit","FINAL LAB VISIT","OTHER EVENT","12","WEEK 24","2013-02-08T11:30",2013-02-08,NA
"CDISCPILOT01","DS","CDISCPILOT01-718-1101",2,"Randomized","RANDOMIZED","PROTOCOL MILESTONE","3","BASELINE","2013-17-02",NA,NA
"CDISCPILOT01","DS","CDISCPILOT01-718-1101",3,"Study Terminated by Sponsor","STUDY TERMINATED BY SPONSOR","DISPOSITION EVENT","12","WEEK 24","2013-02-08",2013-02-08,NA
"CDISCPILOT01","DS","CDISCPILOT01-718-1139",1,"Completed","COMPLETED","DISPOSITION EVENT","13","WEEK 26","2013-17-11",NA,NA
"CDISCPILOT01","DS","CDISCPILOT01-718-1139",2,"Final Lab Visit","FINAL LAB VISIT","OTHER EVENT","13","WEEK 26","2013-17-11T10:30",NA,NA
"CDISCPILOT01","DS","CDISCPILOT01-718-1139",3,"Randomized","RANDOMIZED","PROTOCOL MILESTONE","3","BASELINE","2013-19-05",NA,NA
"CDISCPILOT01","DS","CDISCPILOT01-718-1150",1,"Completed","COMPLETED","DISPOSITION EVENT","13","WEEK 26","2013-31-07",NA,NA
"CDISCPILOT01","DS","CDISCPILOT01-718-1150",2,"Final Lab Visit","FINAL LAB VISIT","OTHER EVENT","13","WEEK 26","2013-31-07T14:05",NA,NA
"CDISCPILOT01","DS","CDISCPILOT01-718-1150",3,"Randomized","RANDOMIZED","PROTOCOL MILESTONE","3","BASELINE","2013-19-01",NA,NA
"CDISCPILOT01","DS","CDISCPILOT01-718-1170",1,"Adverse Event","ADVERSE EVENT","DISPOSITION EVENT","5","WEEK 4","2013-03-11",2013-03-11,NA
"CDISCPILOT01","DS","CDISCPILOT01-718-1170",2,"Final Lab Visit","FINAL LAB VISIT","OTHER EVENT","5","WEEK 4","2013-03-11T10:15",2013-03-11,NA
"CDISCPILOT01","DS","CDISCPILOT01-718-1170",3,"Final Retrieval Visit","FINAL RETRIEVAL VISIT","OTHER EVENT","201","RETRIEVAL","2014-15-03",NA,NA
"CDISCPILOT01","DS","CDISCPILOT01-718-1170",4,"Randomized","RANDOMIZED","PROTOCOL MILESTONE","3","BASELINE","2013-16-09",NA,NA
"CDISCPILOT01","DS","CDISCPILOT01-718-1172",1,"Final Lab Visit","FINAL LAB VISIT","OTHER EVENT","9","WEEK 12","2013-29-11T15:45",NA,NA
"CDISCPILOT01","DS","CDISCPILOT01-718-1172",2,"Final Retrieval Visit","FINAL RETRIEVAL VISIT","OTHER EVENT","201","RETRIEVAL","2014-21-03",NA,NA
"CDISCPILOT01","DS","CDISCPILOT01-718-1172",3,"Randomized","RANDOMIZED","PROTOCOL MILESTONE","3","BASELINE","2013-21-09",NA,NA
"CDISCPILOT01","DS","CDISCPILOT01-718-1172",4,"Withdrawal by Subject","WITHDRAWAL BY SUBJECT","DISPOSITION EVENT","9","WEEK 12","2013-29-11",NA,NA
"CDISCPILOT01","DS","CDISCPILOT01-718-1250",1,"Adverse Event","ADVERSE EVENT","DISPOSITION EVENT","11","WEEK 20","2014-08-02",2014-08-02,NA
"CDISCPILOT01","DS","CDISCPILOT01-718-1250",2,"Final Lab Visit","FINAL LAB VISIT","OTHER EVENT","11","WEEK 20","2014-08-02T09:30",2014-08-02,NA
"CDISCPILOT01","DS","CDISCPILOT01-718-1250",3,"Final Retrieval Visit","FINAL RETRIEVAL VISIT","OTHER EVENT","201","RETRIEVAL","2014-08-03",2014-08-03,NA
"CDISCPILOT01","DS","CDISCPILOT01-718-1250",4,"Randomized","RANDOMIZED","PROTOCOL MILESTONE","3","BASELINE","2013-21-09",NA,NA
"CDISCPILOT01","DS","CDISCPILOT01-718-1254",1,"Completed","COMPLETED","DISPOSITION EVENT","13","WEEK 26","2014-09-01",2014-09-01,330
"CDISCPILOT01","DS","CDISCPILOT01-718-1254",2,"Final Lab Visit","FINAL LAB VISIT","OTHER EVENT","13","WEEK 26","2014-09-01T11:10",2014-09-01,330
"CDISCPILOT01","DS","CDISCPILOT01-718-1254",3,"Randomized","RANDOMIZED","PROTOCOL MILESTONE","3","BASELINE","2013-10-07",2013-10-07,1
"CDISCPILOT01","DS","CDISCPILOT01-718-1328",1,"Final Lab Visit","FINAL LAB VISIT","OTHER EVENT","9","WEEK 12","2013-01-05T15:15",2013-01-05,4
"CDISCPILOT01","DS","CDISCPILOT01-718-1328",2,"Final Retrieval Visit","FINAL RETRIEVAL VISIT","OTHER EVENT","201","RETRIEVAL","2013-24-07",NA,NA
"CDISCPILOT01","DS","CDISCPILOT01-718-1328",3,"Randomized","RANDOMIZED","PROTOCOL MILESTONE","3","BASELINE","2013-01-02",2013-01-02,1
"CDISCPILOT01","DS","CDISCPILOT01-718-1328",4,"Withdrawal by Subject","WITHDRAWAL BY SUBJECT","DISPOSITION EVENT","9","WEEK 12","2013-01-05",2013-01-05,4
"CDISCPILOT01","DS","CDISCPILOT01-718-1355",1,"Completed","COMPLETED","DISPOSITION EVENT","13","WEEK 26","2013-29-08",NA,NA
"CDISCPILOT01","DS","CDISCPILOT01-718-1355",2,"Final Lab Visit","FINAL LAB VISIT","OTHER EVENT","13","WEEK 26","2013-29-08T14:00",NA,NA
"CDISCPILOT01","DS","CDISCPILOT01-718-1355",3,"Randomized","RANDOMIZED","PROTOCOL MILESTONE","3","BASELINE","2013-28-02",NA,NA
"CDISCPILOT01","DS","CDISCPILOT01-718-1371",1,"Adverse Event","ADVERSE EVENT","DISPOSITION EVENT","9","WEEK 12","2013-08-08",2013-08-08,NA
"CDISCPILOT01","DS","CDISCPILOT01-718-1371",2,"Final Lab Visit","FINAL LAB VISIT","OTHER EVENT","9","WEEK 12","2013-01-08T14:55",2013-01-08,NA
"CDISCPILOT01","DS","CDISCPILOT01-718-1371",3,"Randomized","RANDOMIZED","PROTOCOL MILESTONE","3","BASELINE","2013-26-04",NA,NA
"CDISCPILOT01","DS","CDISCPILOT01-718-1427",1,"Final Lab Visit","FINAL LAB VISIT","OTHER EVENT","UNSCHEDULED 8.2","UNSCHEDULED 8.2","2013-18-02T12:30",NA,NA
"CDISCPILOT01","DS","CDISCPILOT01-718-1427",2,"Final Retrieval Visit","FINAL RETRIEVAL VISIT","OTHER EVENT","201","RETRIEVAL","2013-03-06",2013-03-06,NA
"CDISCPILOT01","DS","CDISCPILOT01-718-1427",3,"Lack of Efficacy","LACK OF EFFICACY","DISPOSITION EVENT","8","WEEK 8","2013-18-02",NA,NA
"CDISCPILOT01","DS","CDISCPILOT01-718-1427",4,"Randomized","RANDOMIZED","PROTOCOL MILESTONE","3","BASELINE","2012-17-12",NA,NA
